,Study ID,Participant ID,Fluent,Designer,Test ID,Test type,Trial ID,Font,Sample,Category,Response,Correct,Seen,Foil,Response time,JoM,JoL,Date
0,1.0,0.0,False,Letter designer,1,lexical,1,arial,delident,non-word,Probably non-word,1.0,,,4595,26,ok,11-04-2019 16:05
1,1.0,0.0,False,Letter designer,1,lexical,2,arial,above,word,Sure word,1.0,,,1507,26,ok,11-04-2019 16:05
2,1.0,0.0,False,Letter designer,1,lexical,3,arial,suddence,non-word,Probably non-word,1.0,,,3952,26,ok,11-04-2019 16:05
3,1.0,0.0,False,Letter designer,1,lexical,4,arial,secret,word,Sure word,1.0,,,1626,26,ok,11-04-2019 16:05
4,1.0,0.0,False,Letter designer,1,lexical,5,arial,speech,word,Sure word,1.0,,,1158,26,ok,11-04-2019 16:05
5,1.0,0.0,False,Letter designer,1,lexical,6,arial,watching,word,Sure word,1.0,,,1053,26,ok,11-04-2019 16:05
6,1.0,0.0,False,Letter designer,1,lexical,7,arial,resources,word,Sure word,1.0,,,1056,26,ok,11-04-2019 16:05
7,1.0,0.0,False,Letter designer,1,lexical,8,arial,games,word,Sure word,1.0,,,920,26,ok,11-04-2019 16:05
8,1.0,0.0,False,Letter designer,1,lexical,9,arial,wondered,word,Sure word,1.0,,,1412,26,ok,11-04-2019 16:05
9,1.0,0.0,False,Letter designer,1,lexical,10,arial,turpagance,non-word,Probably word,0.0,,,9268,26,ok,11-04-2019 16:05
10,1.0,0.0,False,Letter designer,1,lexical,11,arial,given,word,Sure word,1.0,,,1069,26,ok,11-04-2019 16:05
11,1.0,0.0,False,Letter designer,1,lexical,12,arial,opplanation,non-word,Probably word,0.0,,,6409,26,ok,11-04-2019 16:05
12,1.0,0.0,False,Letter designer,1,lexical,13,arial,theen,non-word,Sure word,0.0,,,523,26,ok,11-04-2019 16:05
13,1.0,0.0,False,Letter designer,1,lexical,14,arial,appresses,non-word,Sure non-word,1.0,,,5420,26,ok,11-04-2019 16:05
14,1.0,0.0,False,Letter designer,1,lexical,15,arial,warket,non-word,Sure non-word,1.0,,,1884,26,ok,11-04-2019 16:05
15,1.0,0.0,False,Letter designer,1,lexical,16,arial,utimunation,non-word,Probably non-word,1.0,,,3468,26,ok,11-04-2019 16:05
16,1.0,0.0,False,Letter designer,1,lexical,17,arial,enoups,non-word,Probably non-word,1.0,,,1930,26,ok,11-04-2019 16:05
17,1.0,0.0,False,Letter designer,1,lexical,18,arial,compaganth,non-word,Probably non-word,1.0,,,4503,26,ok,11-04-2019 16:05
18,1.0,0.0,False,Letter designer,1,lexical,19,arial,somehow,word,Sure word,1.0,,,1409,26,ok,11-04-2019 16:05
19,1.0,0.0,False,Letter designer,1,lexical,20,arial,dinner,word,Sure word,1.0,,,1140,26,ok,11-04-2019 16:05
20,1.0,0.0,False,Letter designer,1,recognition,1,arial,wassia,non-word,Sure not seen,1.0,not seen,warket,3045,26,ok,11-04-2019 16:05
21,1.0,0.0,False,Letter designer,1,recognition,2,arial,taked,non-word,Sure not seen,1.0,not seen,turpagance,1788,26,ok,11-04-2019 16:05
22,1.0,0.0,False,Letter designer,1,recognition,3,arial,respect,word,Sure not seen,1.0,not seen,resources,1253,26,ok,11-04-2019 16:05
23,1.0,0.0,False,Letter designer,1,recognition,4,arial,given,word,Sure seen,1.0,seen,given,1321,26,ok,11-04-2019 16:05
24,1.0,0.0,False,Letter designer,1,recognition,5,arial,wonderful,word,Sure not seen,1.0,not seen,wondered,1761,26,ok,11-04-2019 16:05
25,1.0,0.0,False,Letter designer,1,recognition,6,arial,games,word,Sure seen,1.0,seen,games,1261,26,ok,11-04-2019 16:05
26,1.0,0.0,False,Letter designer,1,recognition,7,arial,speed,word,Probably not seen,1.0,not seen,speech,3018,26,ok,11-04-2019 16:05
27,1.0,0.0,False,Letter designer,1,recognition,8,arial,theen,non-word,Sure seen,1.0,seen,theen,1718,26,ok,11-04-2019 16:05
28,1.0,0.0,False,Letter designer,1,recognition,9,arial,secretary,word,Sure not seen,1.0,not seen,secret,2459,26,ok,11-04-2019 16:05
29,1.0,0.0,False,Letter designer,1,recognition,10,arial,suddle,non-word,Sure not seen,1.0,not seen,suddence,1133,26,ok,11-04-2019 16:05
30,1.0,0.0,False,Letter designer,1,recognition,11,arial,enoups,non-word,Sure seen,1.0,seen,enoups,1615,26,ok,11-04-2019 16:05
31,1.0,0.0,False,Letter designer,1,recognition,12,arial,appresses,non-word,Sure seen,1.0,seen,appresses,2257,26,ok,11-04-2019 16:05
32,1.0,0.0,False,Letter designer,1,recognition,13,arial,demething,non-word,Probably not seen,1.0,not seen,delident,3527,26,ok,11-04-2019 16:05
33,1.0,0.0,False,Letter designer,1,recognition,14,arial,dinner,word,Sure seen,1.0,seen,dinner,1879,26,ok,11-04-2019 16:05
34,1.0,0.0,False,Letter designer,1,recognition,15,arial,watching,word,Sure seen,1.0,seen,watching,2238,26,ok,11-04-2019 16:05
35,1.0,0.0,False,Letter designer,1,recognition,16,arial,utimunation,non-word,Sure seen,1.0,seen,utimunation,1785,26,ok,11-04-2019 16:05
36,1.0,0.0,False,Letter designer,2,lexical,1,sansforgetica,listening,word,Sure word,1.0,,,1943,10,difficult to read,11-04-2019 16:05
37,1.0,0.0,False,Letter designer,2,lexical,2,sansforgetica,coupid,non-word,Sure non-word,1.0,,,2617,10,difficult to read,11-04-2019 16:05
38,1.0,0.0,False,Letter designer,2,lexical,3,sansforgetica,ground,word,Sure word,1.0,,,1321,10,difficult to read,11-04-2019 16:05
39,1.0,0.0,False,Letter designer,2,lexical,4,sansforgetica,struck,word,Sure word,1.0,,,1869,10,difficult to read,11-04-2019 16:05
40,1.0,0.0,False,Letter designer,2,lexical,5,sansforgetica,countenth,non-word,Probably non-word,1.0,,,3871,10,difficult to read,11-04-2019 16:05
41,1.0,0.0,False,Letter designer,2,lexical,6,sansforgetica,recently,word,Sure word,1.0,,,1951,10,difficult to read,11-04-2019 16:05
42,1.0,0.0,False,Letter designer,2,lexical,7,sansforgetica,sechniall,non-word,Probably word,0.0,,,3926,10,difficult to read,11-04-2019 16:05
43,1.0,0.0,False,Letter designer,2,lexical,8,sansforgetica,granspors,non-word,Probably non-word,1.0,,,4685,10,difficult to read,11-04-2019 16:05
44,1.0,0.0,False,Letter designer,2,lexical,9,sansforgetica,cenger,non-word,Sure non-word,1.0,,,2679,10,difficult to read,11-04-2019 16:05
45,1.0,0.0,False,Letter designer,2,lexical,10,sansforgetica,cross,word,Sure word,1.0,,,1645,10,difficult to read,11-04-2019 16:05
46,1.0,0.0,False,Letter designer,2,lexical,11,sansforgetica,forget,word,Sure word,1.0,,,3601,10,difficult to read,11-04-2019 16:05
47,1.0,0.0,False,Letter designer,2,lexical,12,sansforgetica,every,word,Sure word,1.0,,,1876,10,difficult to read,11-04-2019 16:05
48,1.0,0.0,False,Letter designer,2,lexical,13,sansforgetica,worth,word,Sure word,1.0,,,1000,10,difficult to read,11-04-2019 16:05
49,1.0,0.0,False,Letter designer,2,lexical,14,sansforgetica,profertion,non-word,Probably non-word,1.0,,,6448,10,difficult to read,11-04-2019 16:05
50,1.0,0.0,False,Letter designer,2,lexical,15,sansforgetica,imputives,non-word,Probably non-word,1.0,,,2704,10,difficult to read,11-04-2019 16:05
51,1.0,0.0,False,Letter designer,2,lexical,16,sansforgetica,beausance,non-word,Probably non-word,1.0,,,3368,10,difficult to read,11-04-2019 16:05
52,1.0,0.0,False,Letter designer,2,lexical,17,sansforgetica,newspable,non-word,Probably non-word,1.0,,,4209,10,difficult to read,11-04-2019 16:05
53,1.0,0.0,False,Letter designer,2,lexical,18,sansforgetica,itself,word,Sure word,1.0,,,1281,10,difficult to read,11-04-2019 16:05
54,1.0,0.0,False,Letter designer,2,lexical,19,sansforgetica,upbelf,non-word,Sure non-word,1.0,,,3700,10,difficult to read,11-04-2019 16:05
55,1.0,0.0,False,Letter designer,2,lexical,20,sansforgetica,friendly,word,Sure word,1.0,,,1184,10,difficult to read,11-04-2019 16:05
56,1.0,0.0,False,Letter designer,2,recognition,1,sansforgetica,itself,word,Sure seen,1.0,seen,itself,2468,10,difficult to read,11-04-2019 16:05
57,1.0,0.0,False,Letter designer,2,recognition,2,sansforgetica,frightened,word,Probably not seen,1.0,not seen,friendly,4801,10,difficult to read,11-04-2019 16:05
58,1.0,0.0,False,Letter designer,2,recognition,3,sansforgetica,profertion,non-word,Sure seen,1.0,seen,profertion,2420,10,difficult to read,11-04-2019 16:05
59,1.0,0.0,False,Letter designer,2,recognition,4,sansforgetica,newspable,non-word,Sure seen,1.0,seen,newspable,1323,10,difficult to read,11-04-2019 16:05
60,1.0,0.0,False,Letter designer,2,recognition,5,sansforgetica,recently,word,Sure seen,1.0,seen,recently,1308,10,difficult to read,11-04-2019 16:05
61,1.0,0.0,False,Letter designer,2,recognition,6,sansforgetica,cenger,non-word,Sure seen,1.0,seen,cenger,1182,10,difficult to read,11-04-2019 16:05
62,1.0,0.0,False,Letter designer,2,recognition,7,sansforgetica,sechniall,non-word,Sure seen,1.0,seen,sechniall,1384,10,difficult to read,11-04-2019 16:05
63,1.0,0.0,False,Letter designer,2,recognition,8,sansforgetica,everybody,word,Probably not seen,1.0,not seen,every,2115,10,difficult to read,11-04-2019 16:05
64,1.0,0.0,False,Letter designer,2,recognition,9,sansforgetica,would,word,Probably not seen,1.0,not seen,worth,2511,10,difficult to read,11-04-2019 16:05
65,1.0,0.0,False,Letter designer,2,recognition,10,sansforgetica,listening,word,Probably not seen,0.0,seen,listening,1612,10,difficult to read,11-04-2019 16:05
66,1.0,0.0,False,Letter designer,2,recognition,11,sansforgetica,incogering,non-word,Probably not seen,1.0,not seen,imputives,1959,10,difficult to read,11-04-2019 16:05
67,1.0,0.0,False,Letter designer,2,recognition,12,sansforgetica,counticks,non-word,Sure not seen,1.0,not seen,countenth,1827,10,difficult to read,11-04-2019 16:05
68,1.0,0.0,False,Letter designer,2,recognition,13,sansforgetica,grattered,non-word,Sure not seen,1.0,not seen,granspors,3529,10,difficult to read,11-04-2019 16:05
69,1.0,0.0,False,Letter designer,2,recognition,14,sansforgetica,groups,word,Probably not seen,1.0,not seen,ground,2433,10,difficult to read,11-04-2019 16:05
70,1.0,0.0,False,Letter designer,2,recognition,15,sansforgetica,becend,non-word,Probably not seen,1.0,not seen,beausance,3110,10,difficult to read,11-04-2019 16:05
71,1.0,0.0,False,Letter designer,2,recognition,16,sansforgetica,struck,word,Sure seen,1.0,seen,struck,1831,10,difficult to read,11-04-2019 16:05
72,1.0,72.0,False,Non-designer,1,lexical,1,arial,lisertant,non-word,Sure non-word,1.0,,,2950,50,very easy to read,11-04-2019 15:48
73,1.0,72.0,False,Non-designer,1,lexical,2,arial,shock,word,Sure word,1.0,,,1762,50,very easy to read,11-04-2019 15:48
74,1.0,72.0,False,Non-designer,1,lexical,3,arial,faces,word,Sure word,1.0,,,1591,50,very easy to read,11-04-2019 15:48
75,1.0,72.0,False,Non-designer,1,lexical,4,arial,violetic,non-word,Sure word,0.0,,,2078,50,very easy to read,11-04-2019 15:48
76,1.0,72.0,False,Non-designer,1,lexical,5,arial,shannishes,non-word,Sure non-word,1.0,,,2615,50,very easy to read,11-04-2019 15:48
77,1.0,72.0,False,Non-designer,1,lexical,6,arial,something,word,Sure word,1.0,,,1599,50,very easy to read,11-04-2019 15:48
78,1.0,72.0,False,Non-designer,1,lexical,7,arial,doing,word,Sure word,1.0,,,1474,50,very easy to read,11-04-2019 15:48
79,1.0,72.0,False,Non-designer,1,lexical,8,arial,expectively,non-word,Sure word,0.0,,,1678,50,very easy to read,11-04-2019 15:48
80,1.0,72.0,False,Non-designer,1,lexical,9,arial,brummitic,non-word,Sure non-word,1.0,,,2069,50,very easy to read,11-04-2019 15:48
81,1.0,72.0,False,Non-designer,1,lexical,10,arial,advice,word,Sure word,1.0,,,1593,50,very easy to read,11-04-2019 15:48
82,1.0,72.0,False,Non-designer,1,lexical,11,arial,picture,word,Sure word,1.0,,,1475,50,very easy to read,11-04-2019 15:48
83,1.0,72.0,False,Non-designer,1,lexical,12,arial,accurdes,non-word,Probably word,0.0,,,1926,50,very easy to read,11-04-2019 15:48
84,1.0,72.0,False,Non-designer,1,lexical,13,arial,unconscents,non-word,Sure non-word,1.0,,,2417,50,very easy to read,11-04-2019 15:48
85,1.0,72.0,False,Non-designer,1,lexical,14,arial,chaped,non-word,Sure word,0.0,,,1826,50,very easy to read,11-04-2019 15:48
86,1.0,72.0,False,Non-designer,1,lexical,15,arial,considere,non-word,Sure word,0.0,,,2079,50,very easy to read,11-04-2019 15:48
87,1.0,72.0,False,Non-designer,1,lexical,16,arial,another,word,Sure word,1.0,,,1485,50,very easy to read,11-04-2019 15:48
88,1.0,72.0,False,Non-designer,1,lexical,17,arial,picked,word,Sure word,1.0,,,1489,50,very easy to read,11-04-2019 15:48
89,1.0,72.0,False,Non-designer,1,lexical,18,arial,sometched,non-word,Sure non-word,1.0,,,2193,50,very easy to read,11-04-2019 15:48
90,1.0,72.0,False,Non-designer,1,lexical,19,arial,build,word,Sure word,1.0,,,1633,50,very easy to read,11-04-2019 15:48
91,1.0,72.0,False,Non-designer,1,lexical,20,arial,almost,word,Sure word,1.0,,,1365,50,very easy to read,11-04-2019 15:48
92,1.0,72.0,False,Non-designer,1,recognition,1,arial,pieces,word,Sure not seen,1.0,not seen,picture,4177,50,very easy to read,11-04-2019 15:48
93,1.0,72.0,False,Non-designer,1,recognition,2,arial,burropretic,non-word,Sure seen,0.0,not seen,brummitic,2338,50,very easy to read,11-04-2019 15:48
94,1.0,72.0,False,Non-designer,1,recognition,3,arial,picked,word,Sure seen,1.0,seen,picked,1880,50,very easy to read,11-04-2019 15:48
95,1.0,72.0,False,Non-designer,1,recognition,4,arial,shannishes,non-word,Sure seen,1.0,seen,shannishes,3617,50,very easy to read,11-04-2019 15:48
96,1.0,72.0,False,Non-designer,1,recognition,5,arial,dollars,word,Sure not seen,1.0,not seen,doing,2108,50,very easy to read,11-04-2019 15:48
97,1.0,72.0,False,Non-designer,1,recognition,6,arial,shock,word,Sure seen,1.0,seen,shock,3038,50,very easy to read,11-04-2019 15:48
98,1.0,72.0,False,Non-designer,1,recognition,7,arial,addicaches,non-word,Sure seen,0.0,not seen,accurdes,1761,50,very easy to read,11-04-2019 15:48
99,1.0,72.0,False,Non-designer,1,recognition,8,arial,chaped,non-word,Sure seen,1.0,seen,chaped,3821,50,very easy to read,11-04-2019 15:48
100,1.0,72.0,False,Non-designer,1,recognition,9,arial,faces,word,Sure seen,1.0,seen,faces,1573,50,very easy to read,11-04-2019 15:48
101,1.0,72.0,False,Non-designer,1,recognition,10,arial,litached,non-word,Sure seen,0.0,not seen,lisertant,1266,50,very easy to read,11-04-2019 15:48
102,1.0,72.0,False,Non-designer,1,recognition,11,arial,alone,word,Sure seen,0.0,not seen,almost,1580,50,very easy to read,11-04-2019 15:48
103,1.0,72.0,False,Non-designer,1,recognition,12,arial,sometched,non-word,Sure seen,1.0,seen,sometched,1616,50,very easy to read,11-04-2019 15:48
104,1.0,72.0,False,Non-designer,1,recognition,13,arial,expedintly,non-word,Sure seen,0.0,not seen,expectively,1982,50,very easy to read,11-04-2019 15:48
105,1.0,72.0,False,Non-designer,1,recognition,14,arial,build,word,Sure seen,1.0,seen,build,1567,50,very easy to read,11-04-2019 15:48
106,1.0,72.0,False,Non-designer,1,recognition,15,arial,violetic,non-word,Sure seen,1.0,seen,violetic,1441,50,very easy to read,11-04-2019 15:48
107,1.0,72.0,False,Non-designer,1,recognition,16,arial,affairs,word,Probably seen,0.0,not seen,advice,4430,50,very easy to read,11-04-2019 15:48
108,1.0,72.0,False,Non-designer,2,lexical,1,sansforgetica,leaves,word,Sure word,1.0,,,2877,50,very easy to read,11-04-2019 15:48
109,1.0,72.0,False,Non-designer,2,lexical,2,sansforgetica,anyway,word,Sure word,1.0,,,1635,50,very easy to read,11-04-2019 15:48
110,1.0,72.0,False,Non-designer,2,lexical,3,sansforgetica,indeed,word,Sure word,1.0,,,1395,50,very easy to read,11-04-2019 15:48
111,1.0,72.0,False,Non-designer,2,lexical,4,sansforgetica,stared,word,Sure word,1.0,,,1337,50,very easy to read,11-04-2019 15:48
112,1.0,72.0,False,Non-designer,2,lexical,5,sansforgetica,floor,word,Sure word,1.0,,,1380,50,very easy to read,11-04-2019 15:48
113,1.0,72.0,False,Non-designer,2,lexical,6,sansforgetica,raince,non-word,Sure non-word,1.0,,,2164,50,very easy to read,11-04-2019 15:48
114,1.0,72.0,False,Non-designer,2,lexical,7,sansforgetica,genscists,non-word,Sure non-word,1.0,,,2781,50,very easy to read,11-04-2019 15:48
115,1.0,72.0,False,Non-designer,2,lexical,8,sansforgetica,garost,non-word,Probably non-word,1.0,,,3456,50,very easy to read,11-04-2019 15:48
116,1.0,72.0,False,Non-designer,2,lexical,9,sansforgetica,occurred,word,Sure word,1.0,,,1612,50,very easy to read,11-04-2019 15:48
117,1.0,72.0,False,Non-designer,2,lexical,10,sansforgetica,easide,non-word,Sure non-word,1.0,,,2137,50,very easy to read,11-04-2019 15:48
118,1.0,72.0,False,Non-designer,2,lexical,11,sansforgetica,weeks,word,Sure word,1.0,,,1498,50,very easy to read,11-04-2019 15:48
119,1.0,72.0,False,Non-designer,2,lexical,12,sansforgetica,training,word,Sure word,1.0,,,1849,50,very easy to read,11-04-2019 15:48
120,1.0,72.0,False,Non-designer,2,lexical,13,sansforgetica,promoring,non-word,Sure word,0.0,,,1453,50,very easy to read,11-04-2019 15:48
121,1.0,72.0,False,Non-designer,2,lexical,14,sansforgetica,definatute,non-word,Sure word,0.0,,,2105,50,very easy to read,11-04-2019 15:48
122,1.0,72.0,False,Non-designer,2,lexical,15,sansforgetica,advantage,word,Sure word,1.0,,,1564,50,very easy to read,11-04-2019 15:48
123,1.0,72.0,False,Non-designer,2,lexical,16,sansforgetica,watching,word,Sure word,1.0,,,1361,50,very easy to read,11-04-2019 15:48
124,1.0,72.0,False,Non-designer,2,lexical,17,sansforgetica,gatimasher,non-word,Sure non-word,1.0,,,2542,50,very easy to read,11-04-2019 15:48
125,1.0,72.0,False,Non-designer,2,lexical,18,sansforgetica,riner,non-word,Sure non-word,1.0,,,2263,50,very easy to read,11-04-2019 15:48
126,1.0,72.0,False,Non-designer,2,lexical,19,sansforgetica,cormaning,non-word,Sure word,0.0,,,2724,50,very easy to read,11-04-2019 15:48
127,1.0,72.0,False,Non-designer,2,lexical,20,sansforgetica,clesh,non-word,Probably non-word,1.0,,,2815,50,very easy to read,11-04-2019 15:48
128,1.0,72.0,False,Non-designer,2,recognition,1,sansforgetica,gatimasher,non-word,Sure seen,1.0,seen,gatimasher,2171,50,very easy to read,11-04-2019 15:48
129,1.0,72.0,False,Non-designer,2,recognition,2,sansforgetica,rivice,non-word,Probably not seen,1.0,not seen,riner,3112,50,very easy to read,11-04-2019 15:48
130,1.0,72.0,False,Non-designer,2,recognition,3,sansforgetica,promoring,non-word,Sure seen,1.0,seen,promoring,1621,50,very easy to read,11-04-2019 15:48
131,1.0,72.0,False,Non-designer,2,recognition,4,sansforgetica,ralls,non-word,Sure not seen,1.0,not seen,raince,2315,50,very easy to read,11-04-2019 15:48
132,1.0,72.0,False,Non-designer,2,recognition,5,sansforgetica,watching,word,Sure seen,1.0,seen,watching,1515,50,very easy to read,11-04-2019 15:48
133,1.0,72.0,False,Non-designer,2,recognition,6,sansforgetica,cormaning,non-word,Sure seen,1.0,seen,cormaning,1424,50,very easy to read,11-04-2019 15:48
134,1.0,72.0,False,Non-designer,2,recognition,7,sansforgetica,gensibility,non-word,Sure seen,0.0,not seen,genscists,2041,50,very easy to read,11-04-2019 15:48
135,1.0,72.0,False,Non-designer,2,recognition,8,sansforgetica,flowers,word,Sure not seen,1.0,not seen,floor,2037,50,very easy to read,11-04-2019 15:48
136,1.0,72.0,False,Non-designer,2,recognition,9,sansforgetica,training,word,Sure seen,1.0,seen,training,1548,50,very easy to read,11-04-2019 15:48
137,1.0,72.0,False,Non-designer,2,recognition,10,sansforgetica,stared,word,Sure seen,1.0,seen,stared,2152,50,very easy to read,11-04-2019 15:48
138,1.0,72.0,False,Non-designer,2,recognition,11,sansforgetica,eassed,non-word,Sure not seen,1.0,not seen,easide,2000,50,very easy to read,11-04-2019 15:48
139,1.0,72.0,False,Non-designer,2,recognition,12,sansforgetica,advanced,word,Sure seen,0.0,not seen,advantage,1435,50,very easy to read,11-04-2019 15:48
140,1.0,72.0,False,Non-designer,2,recognition,13,sansforgetica,indeed,word,Sure seen,1.0,seen,indeed,1511,50,very easy to read,11-04-2019 15:48
141,1.0,72.0,False,Non-designer,2,recognition,14,sansforgetica,weight,word,Sure not seen,1.0,not seen,weeks,2006,50,very easy to read,11-04-2019 15:48
142,1.0,72.0,False,Non-designer,2,recognition,15,sansforgetica,leaving,word,Sure seen,0.0,not seen,leaves,1376,50,very easy to read,11-04-2019 15:48
143,1.0,72.0,False,Non-designer,2,recognition,16,sansforgetica,clesh,non-word,Sure seen,1.0,seen,clesh,1977,50,very easy to read,11-04-2019 15:48
144,1.0,144.0,False,Non-designer,1,lexical,1,arial,watching,word,Sure word,1.0,,,2924,74,very easy to read,11-04-2019 15:03
145,1.0,144.0,False,Non-designer,1,lexical,2,arial,campaign,word,Sure word,1.0,,,1472,74,very easy to read,11-04-2019 15:03
146,1.0,144.0,False,Non-designer,1,lexical,3,arial,sleat,non-word,Sure non-word,1.0,,,4137,74,very easy to read,11-04-2019 15:03
147,1.0,144.0,False,Non-designer,1,lexical,4,arial,secordlere,non-word,Sure non-word,1.0,,,2122,74,very easy to read,11-04-2019 15:03
148,1.0,144.0,False,Non-designer,1,lexical,5,arial,drive,word,Sure word,1.0,,,1635,74,very easy to read,11-04-2019 15:03
149,1.0,144.0,False,Non-designer,1,lexical,6,arial,achieved,word,Sure word,1.0,,,1652,74,very easy to read,11-04-2019 15:03
150,1.0,144.0,False,Non-designer,1,lexical,7,arial,improprians,non-word,Probably non-word,1.0,,,2842,74,very easy to read,11-04-2019 15:03
151,1.0,144.0,False,Non-designer,1,lexical,8,arial,successity,non-word,Sure non-word,1.0,,,2954,74,very easy to read,11-04-2019 15:03
152,1.0,144.0,False,Non-designer,1,lexical,9,arial,experwify,non-word,Sure non-word,1.0,,,2406,74,very easy to read,11-04-2019 15:03
153,1.0,144.0,False,Non-designer,1,lexical,10,arial,undertaned,non-word,Sure non-word,1.0,,,4107,74,very easy to read,11-04-2019 15:03
154,1.0,144.0,False,Non-designer,1,lexical,11,arial,controyed,non-word,Sure non-word,1.0,,,2131,74,very easy to read,11-04-2019 15:03
155,1.0,144.0,False,Non-designer,1,lexical,12,arial,meaning,word,Sure word,1.0,,,1213,74,very easy to read,11-04-2019 15:03
156,1.0,144.0,False,Non-designer,1,lexical,13,arial,command,word,Sure word,1.0,,,1452,74,very easy to read,11-04-2019 15:03
157,1.0,144.0,False,Non-designer,1,lexical,14,arial,absolets,non-word,Probably word,0.0,,,2934,74,very easy to read,11-04-2019 15:03
158,1.0,144.0,False,Non-designer,1,lexical,15,arial,dreentic,non-word,Sure non-word,1.0,,,1637,74,very easy to read,11-04-2019 15:03
159,1.0,144.0,False,Non-designer,1,lexical,16,arial,decision,word,Sure word,1.0,,,1534,74,very easy to read,11-04-2019 15:03
160,1.0,144.0,False,Non-designer,1,lexical,17,arial,bridge,word,Sure word,1.0,,,1416,74,very easy to read,11-04-2019 15:03
161,1.0,144.0,False,Non-designer,1,lexical,18,arial,alive,word,Sure word,1.0,,,1332,74,very easy to read,11-04-2019 15:03
162,1.0,144.0,False,Non-designer,1,lexical,19,arial,wesisty,non-word,Sure non-word,1.0,,,1569,74,very easy to read,11-04-2019 15:03
163,1.0,144.0,False,Non-designer,1,lexical,20,arial,better,word,Sure word,1.0,,,1398,74,very easy to read,11-04-2019 15:03
164,1.0,144.0,False,Non-designer,1,recognition,1,arial,cancer,word,Sure not seen,1.0,not seen,campaign,3201,74,very easy to read,11-04-2019 15:03
165,1.0,144.0,False,Non-designer,1,recognition,2,arial,successity,non-word,Sure seen,1.0,seen,successity,1936,74,very easy to read,11-04-2019 15:03
166,1.0,144.0,False,Non-designer,1,recognition,3,arial,improprians,non-word,Sure seen,1.0,seen,improprians,1798,74,very easy to read,11-04-2019 15:03
167,1.0,144.0,False,Non-designer,1,recognition,4,arial,explaign,non-word,Sure not seen,1.0,not seen,experwify,2182,74,very easy to read,11-04-2019 15:03
168,1.0,144.0,False,Non-designer,1,recognition,5,arial,secordlere,non-word,Sure seen,1.0,seen,secordlere,1825,74,very easy to read,11-04-2019 15:03
169,1.0,144.0,False,Non-designer,1,recognition,6,arial,across,word,Sure not seen,1.0,not seen,achieved,1856,74,very easy to read,11-04-2019 15:03
170,1.0,144.0,False,Non-designer,1,recognition,7,arial,absolets,non-word,Sure seen,1.0,seen,absolets,1889,74,very easy to read,11-04-2019 15:03
171,1.0,144.0,False,Non-designer,1,recognition,8,arial,contrucrate,non-word,Sure not seen,1.0,not seen,controyed,1600,74,very easy to read,11-04-2019 15:03
172,1.0,144.0,False,Non-designer,1,recognition,9,arial,bridge,word,Sure seen,1.0,seen,bridge,1390,74,very easy to read,11-04-2019 15:03
173,1.0,144.0,False,Non-designer,1,recognition,10,arial,drestion,non-word,Sure not seen,1.0,not seen,dreentic,1466,74,very easy to read,11-04-2019 15:03
174,1.0,144.0,False,Non-designer,1,recognition,11,arial,command,word,Sure seen,1.0,seen,command,1500,74,very easy to read,11-04-2019 15:03
175,1.0,144.0,False,Non-designer,1,recognition,12,arial,wessing,non-word,Sure not seen,1.0,not seen,wesisty,1407,74,very easy to read,11-04-2019 15:03
176,1.0,144.0,False,Non-designer,1,recognition,13,arial,meaning,word,Probably seen,1.0,seen,meaning,3726,74,very easy to read,11-04-2019 15:03
177,1.0,144.0,False,Non-designer,1,recognition,14,arial,better,word,Sure seen,1.0,seen,better,1745,74,very easy to read,11-04-2019 15:03
178,1.0,144.0,False,Non-designer,1,recognition,15,arial,driving,word,Sure seen,0.0,not seen,drive,1348,74,very easy to read,11-04-2019 15:03
179,1.0,144.0,False,Non-designer,1,recognition,16,arial,allow,word,Sure not seen,1.0,not seen,alive,1552,74,very easy to read,11-04-2019 15:03
180,1.0,144.0,False,Non-designer,2,lexical,1,sansforgetica,regetching,non-word,Sure non-word,1.0,,,6086,79,ok,11-04-2019 15:03
181,1.0,144.0,False,Non-designer,2,lexical,2,sansforgetica,crevided,non-word,Sure non-word,1.0,,,4433,79,ok,11-04-2019 15:03
182,1.0,144.0,False,Non-designer,2,lexical,3,sansforgetica,drices,non-word,Sure non-word,1.0,,,3036,79,ok,11-04-2019 15:03
183,1.0,144.0,False,Non-designer,2,lexical,4,sansforgetica,wathed,non-word,Sure word,0.0,,,1117,79,ok,11-04-2019 15:03
184,1.0,144.0,False,Non-designer,2,lexical,5,sansforgetica,fathed,non-word,Sure non-word,1.0,,,3397,79,ok,11-04-2019 15:03
185,1.0,144.0,False,Non-designer,2,lexical,6,sansforgetica,advanced,word,Sure word,1.0,,,1260,79,ok,11-04-2019 15:03
186,1.0,144.0,False,Non-designer,2,lexical,7,sansforgetica,capable,word,Sure word,1.0,,,1791,79,ok,11-04-2019 15:03
187,1.0,144.0,False,Non-designer,2,lexical,8,sansforgetica,plenty,word,Sure word,1.0,,,1072,79,ok,11-04-2019 15:03
188,1.0,144.0,False,Non-designer,2,lexical,9,sansforgetica,matragants,non-word,Probably word,0.0,,,3868,79,ok,11-04-2019 15:03
189,1.0,144.0,False,Non-designer,2,lexical,10,sansforgetica,press,word,Sure word,1.0,,,1202,79,ok,11-04-2019 15:03
190,1.0,144.0,False,Non-designer,2,lexical,11,sansforgetica,necessary,word,Sure word,1.0,,,1285,79,ok,11-04-2019 15:03
191,1.0,144.0,False,Non-designer,2,lexical,12,sansforgetica,prison,word,Sure word,1.0,,,927,79,ok,11-04-2019 15:03
192,1.0,144.0,False,Non-designer,2,lexical,13,sansforgetica,others,word,Sure word,1.0,,,905,79,ok,11-04-2019 15:03
193,1.0,144.0,False,Non-designer,2,lexical,14,sansforgetica,sountion,non-word,Sure non-word,1.0,,,1649,79,ok,11-04-2019 15:03
194,1.0,144.0,False,Non-designer,2,lexical,15,sansforgetica,amount,word,Sure word,1.0,,,1081,79,ok,11-04-2019 15:03
195,1.0,144.0,False,Non-designer,2,lexical,16,sansforgetica,intertution,non-word,Sure non-word,1.0,,,4128,79,ok,11-04-2019 15:03
196,1.0,144.0,False,Non-designer,2,lexical,17,sansforgetica,count,word,Sure word,1.0,,,971,79,ok,11-04-2019 15:03
197,1.0,144.0,False,Non-designer,2,lexical,18,sansforgetica,decade,word,Sure word,1.0,,,1282,79,ok,11-04-2019 15:03
198,1.0,144.0,False,Non-designer,2,lexical,19,sansforgetica,compaing,non-word,Sure word,0.0,,,972,79,ok,11-04-2019 15:03
199,1.0,144.0,False,Non-designer,2,lexical,20,sansforgetica,undernment,non-word,Sure word,0.0,,,1578,79,ok,11-04-2019 15:03
200,1.0,144.0,False,Non-designer,2,recognition,1,sansforgetica,wationation,non-word,Sure not seen,1.0,not seen,wathed,3102,79,ok,11-04-2019 15:03
201,1.0,144.0,False,Non-designer,2,recognition,2,sansforgetica,regetching,non-word,Sure seen,1.0,seen,regetching,2310,79,ok,11-04-2019 15:03
202,1.0,144.0,False,Non-designer,2,recognition,3,sansforgetica,compaing,non-word,Sure seen,1.0,seen,compaing,2222,79,ok,11-04-2019 15:03
203,1.0,144.0,False,Non-designer,2,recognition,4,sansforgetica,analysis,word,Sure not seen,1.0,not seen,amount,1803,79,ok,11-04-2019 15:03
204,1.0,144.0,False,Non-designer,2,recognition,5,sansforgetica,press,word,Probably not seen,0.0,seen,press,4177,79,ok,11-04-2019 15:03
205,1.0,144.0,False,Non-designer,2,recognition,6,sansforgetica,creviver,non-word,Sure not seen,1.0,not seen,crevided,2875,79,ok,11-04-2019 15:03
206,1.0,144.0,False,Non-designer,2,recognition,7,sansforgetica,fathed,non-word,Sure seen,1.0,seen,fathed,1493,79,ok,11-04-2019 15:03
207,1.0,144.0,False,Non-designer,2,recognition,8,sansforgetica,advanced,word,Sure seen,1.0,seen,advanced,1830,79,ok,11-04-2019 15:03
208,1.0,144.0,False,Non-designer,2,recognition,9,sansforgetica,country,word,Sure not seen,1.0,not seen,count,1474,79,ok,11-04-2019 15:03
209,1.0,144.0,False,Non-designer,2,recognition,10,sansforgetica,intervating,non-word,Sure not seen,1.0,not seen,intertution,1819,79,ok,11-04-2019 15:03
210,1.0,144.0,False,Non-designer,2,recognition,11,sansforgetica,pocket,word,Sure not seen,1.0,not seen,plenty,1431,79,ok,11-04-2019 15:03
211,1.0,144.0,False,Non-designer,2,recognition,12,sansforgetica,decade,word,Sure seen,1.0,seen,decade,1037,79,ok,11-04-2019 15:03
212,1.0,144.0,False,Non-designer,2,recognition,13,sansforgetica,mayer,non-word,Sure not seen,1.0,not seen,matragants,2593,79,ok,11-04-2019 15:03
213,1.0,144.0,False,Non-designer,2,recognition,14,sansforgetica,sountion,non-word,Sure seen,1.0,seen,sountion,1476,79,ok,11-04-2019 15:03
214,1.0,144.0,False,Non-designer,2,recognition,15,sansforgetica,capacity,word,Sure not seen,1.0,not seen,capable,1500,79,ok,11-04-2019 15:03
215,1.0,144.0,False,Non-designer,2,recognition,16,sansforgetica,prison,word,Sure seen,1.0,seen,prison,1404,79,ok,11-04-2019 15:03
216,1.0,216.0,False,Non-designer,1,lexical,1,sansforgetica,double,word,Sure word,1.0,,,3374,29,easy to read,11-04-2019 15:01
217,1.0,216.0,False,Non-designer,1,lexical,2,sansforgetica,favour,word,Sure word,1.0,,,1971,29,easy to read,11-04-2019 15:01
218,1.0,216.0,False,Non-designer,1,lexical,3,sansforgetica,murder,word,Sure word,1.0,,,1722,29,easy to read,11-04-2019 15:01
219,1.0,216.0,False,Non-designer,1,lexical,4,sansforgetica,invironment,non-word,Sure non-word,1.0,,,5486,29,easy to read,11-04-2019 15:01
220,1.0,216.0,False,Non-designer,1,lexical,5,sansforgetica,pentifical,non-word,Sure non-word,1.0,,,2740,29,easy to read,11-04-2019 15:01
221,1.0,216.0,False,Non-designer,1,lexical,6,sansforgetica,relatric,non-word,Sure non-word,1.0,,,3181,29,easy to read,11-04-2019 15:01
222,1.0,216.0,False,Non-designer,1,lexical,7,sansforgetica,afraid,word,Sure word,1.0,,,2131,29,easy to read,11-04-2019 15:01
223,1.0,216.0,False,Non-designer,1,lexical,8,sansforgetica,because,word,Sure word,1.0,,,1516,29,easy to read,11-04-2019 15:01
224,1.0,216.0,False,Non-designer,1,lexical,9,sansforgetica,envolase,non-word,Probably non-word,1.0,,,4138,29,easy to read,11-04-2019 15:01
225,1.0,216.0,False,Non-designer,1,lexical,10,sansforgetica,character,word,Sure word,1.0,,,1948,29,easy to read,11-04-2019 15:01
226,1.0,216.0,False,Non-designer,1,lexical,11,sansforgetica,office,word,Sure word,1.0,,,655,29,easy to read,11-04-2019 15:01
227,1.0,216.0,False,Non-designer,1,lexical,12,sansforgetica,became,word,Sure word,1.0,,,1761,29,easy to read,11-04-2019 15:01
228,1.0,216.0,False,Non-designer,1,lexical,13,sansforgetica,bread,word,Sure word,1.0,,,1617,29,easy to read,11-04-2019 15:01
229,1.0,216.0,False,Non-designer,1,lexical,14,sansforgetica,courses,word,Sure word,1.0,,,1884,29,easy to read,11-04-2019 15:01
230,1.0,216.0,False,Non-designer,1,lexical,15,sansforgetica,occumeted,non-word,Sure non-word,1.0,,,5221,29,easy to read,11-04-2019 15:01
231,1.0,216.0,False,Non-designer,1,lexical,16,sansforgetica,seteriship,non-word,Sure non-word,1.0,,,2664,29,easy to read,11-04-2019 15:01
232,1.0,216.0,False,Non-designer,1,lexical,17,sansforgetica,infortition,non-word,Sure non-word,1.0,,,3084,29,easy to read,11-04-2019 15:01
233,1.0,216.0,False,Non-designer,1,lexical,18,sansforgetica,coupid,non-word,Sure non-word,1.0,,,2762,29,easy to read,11-04-2019 15:01
234,1.0,216.0,False,Non-designer,1,lexical,19,sansforgetica,revernment,non-word,Probably non-word,1.0,,,3222,29,easy to read,11-04-2019 15:01
235,1.0,216.0,False,Non-designer,1,lexical,20,sansforgetica,natheracing,non-word,Sure non-word,1.0,,,5554,29,easy to read,11-04-2019 15:01
236,1.0,216.0,False,Non-designer,1,recognition,1,sansforgetica,equipmely,non-word,Sure not seen,1.0,not seen,envolase,7710,29,easy to read,11-04-2019 15:01
237,1.0,216.0,False,Non-designer,1,recognition,2,sansforgetica,coupid,non-word,Sure seen,1.0,seen,coupid,2703,29,easy to read,11-04-2019 15:01
238,1.0,216.0,False,Non-designer,1,recognition,3,sansforgetica,insital,non-word,Sure not seen,1.0,not seen,infortition,2546,29,easy to read,11-04-2019 15:01
239,1.0,216.0,False,Non-designer,1,recognition,4,sansforgetica,doubt,word,Sure not seen,1.0,not seen,double,2246,29,easy to read,11-04-2019 15:01
240,1.0,216.0,False,Non-designer,1,recognition,5,sansforgetica,relatric,non-word,Sure seen,1.0,seen,relatric,2340,29,easy to read,11-04-2019 15:01
241,1.0,216.0,False,Non-designer,1,recognition,6,sansforgetica,character,word,Sure seen,1.0,seen,character,1939,29,easy to read,11-04-2019 15:01
242,1.0,216.0,False,Non-designer,1,recognition,7,sansforgetica,occumeted,non-word,Sure seen,1.0,seen,occumeted,2675,29,easy to read,11-04-2019 15:01
243,1.0,216.0,False,Non-designer,1,recognition,8,sansforgetica,courses,word,Sure seen,1.0,seen,courses,1994,29,easy to read,11-04-2019 15:01
244,1.0,216.0,False,Non-designer,1,recognition,9,sansforgetica,peoped,non-word,Sure not seen,1.0,not seen,pentifical,2456,29,easy to read,11-04-2019 15:01
245,1.0,216.0,False,Non-designer,1,recognition,10,sansforgetica,feeding,word,Sure not seen,1.0,not seen,favour,1913,29,easy to read,11-04-2019 15:01
246,1.0,216.0,False,Non-designer,1,recognition,11,sansforgetica,natheracing,non-word,Sure seen,1.0,seen,natheracing,3265,29,easy to read,11-04-2019 15:01
247,1.0,216.0,False,Non-designer,1,recognition,12,sansforgetica,irrection,non-word,Sure seen,0.0,not seen,invironment,2246,29,easy to read,11-04-2019 15:01
248,1.0,216.0,False,Non-designer,1,recognition,13,sansforgetica,officers,word,Sure not seen,1.0,not seen,office,2159,29,easy to read,11-04-2019 15:01
249,1.0,216.0,False,Non-designer,1,recognition,14,sansforgetica,became,word,Sure seen,1.0,seen,became,2133,29,easy to read,11-04-2019 15:01
250,1.0,216.0,False,Non-designer,1,recognition,15,sansforgetica,afraid,word,Sure seen,1.0,seen,afraid,1851,29,easy to read,11-04-2019 15:01
251,1.0,216.0,False,Non-designer,1,recognition,16,sansforgetica,muscles,word,Sure not seen,1.0,not seen,murder,1916,29,easy to read,11-04-2019 15:01
252,1.0,216.0,False,Non-designer,2,lexical,1,arial,probably,word,Sure word,1.0,,,4229,50,easy to read,11-04-2019 15:01
253,1.0,216.0,False,Non-designer,2,lexical,2,arial,elemselles,non-word,Sure non-word,1.0,,,2723,50,easy to read,11-04-2019 15:01
254,1.0,216.0,False,Non-designer,2,lexical,3,arial,pressure,word,Sure word,1.0,,,1980,50,easy to read,11-04-2019 15:01
255,1.0,216.0,False,Non-designer,2,lexical,4,arial,opergence,non-word,Probably non-word,1.0,,,3120,50,easy to read,11-04-2019 15:01
256,1.0,216.0,False,Non-designer,2,lexical,5,arial,image,word,Sure word,1.0,,,1794,50,easy to read,11-04-2019 15:01
257,1.0,216.0,False,Non-designer,2,lexical,6,arial,refectuning,non-word,Sure non-word,1.0,,,3784,50,easy to read,11-04-2019 15:01
258,1.0,216.0,False,Non-designer,2,lexical,7,arial,environment,word,Sure word,1.0,,,1947,50,easy to read,11-04-2019 15:01
259,1.0,216.0,False,Non-designer,2,lexical,8,arial,faith,word,Sure word,1.0,,,1529,50,easy to read,11-04-2019 15:01
260,1.0,216.0,False,Non-designer,2,lexical,9,arial,martain,non-word,Sure non-word,1.0,,,2639,50,easy to read,11-04-2019 15:01
261,1.0,216.0,False,Non-designer,2,lexical,10,arial,undevollity,non-word,Sure non-word,1.0,,,3125,50,easy to read,11-04-2019 15:01
262,1.0,216.0,False,Non-designer,2,lexical,11,arial,producties,non-word,Sure non-word,1.0,,,1659,50,easy to read,11-04-2019 15:01
263,1.0,216.0,False,Non-designer,2,lexical,12,arial,forgotten,word,Sure word,1.0,,,1953,50,easy to read,11-04-2019 15:01
264,1.0,216.0,False,Non-designer,2,lexical,13,arial,oppech,non-word,Sure non-word,1.0,,,2155,50,easy to read,11-04-2019 15:01
265,1.0,216.0,False,Non-designer,2,lexical,14,arial,cheir,non-word,Sure non-word,1.0,,,3351,50,easy to read,11-04-2019 15:01
266,1.0,216.0,False,Non-designer,2,lexical,15,arial,toward,word,Sure word,1.0,,,1896,50,easy to read,11-04-2019 15:01
267,1.0,216.0,False,Non-designer,2,lexical,16,arial,social,word,Sure word,1.0,,,1478,50,easy to read,11-04-2019 15:01
268,1.0,216.0,False,Non-designer,2,lexical,17,arial,clese,non-word,Sure non-word,1.0,,,2074,50,easy to read,11-04-2019 15:01
269,1.0,216.0,False,Non-designer,2,lexical,18,arial,resources,word,Sure word,1.0,,,1815,50,easy to read,11-04-2019 15:01
270,1.0,216.0,False,Non-designer,2,lexical,19,arial,gendish,non-word,Sure non-word,1.0,,,1757,50,easy to read,11-04-2019 15:01
271,1.0,216.0,False,Non-designer,2,lexical,20,arial,along,word,Sure word,1.0,,,1944,50,easy to read,11-04-2019 15:01
272,1.0,216.0,False,Non-designer,2,recognition,1,arial,trade,word,Sure not seen,1.0,not seen,toward,5208,50,easy to read,11-04-2019 15:01
273,1.0,216.0,False,Non-designer,2,recognition,2,arial,opergence,non-word,Sure seen,1.0,seen,opergence,2371,50,easy to read,11-04-2019 15:01
274,1.0,216.0,False,Non-designer,2,recognition,3,arial,image,word,Sure seen,1.0,seen,image,1650,50,easy to read,11-04-2019 15:01
275,1.0,216.0,False,Non-designer,2,recognition,4,arial,already,word,Sure not seen,1.0,not seen,along,2499,50,easy to read,11-04-2019 15:01
276,1.0,216.0,False,Non-designer,2,recognition,5,arial,producties,non-word,Sure seen,1.0,seen,producties,2108,50,easy to read,11-04-2019 15:01
277,1.0,216.0,False,Non-designer,2,recognition,6,arial,cheir,non-word,Sure seen,1.0,seen,cheir,1827,50,easy to read,11-04-2019 15:01
278,1.0,216.0,False,Non-designer,2,recognition,7,arial,generients,non-word,Sure not seen,1.0,not seen,gendish,2458,50,easy to read,11-04-2019 15:01
279,1.0,216.0,False,Non-designer,2,recognition,8,arial,undimendent,non-word,Sure not seen,1.0,not seen,undevollity,1807,50,easy to read,11-04-2019 15:01
280,1.0,216.0,False,Non-designer,2,recognition,9,arial,probably,word,Sure seen,1.0,seen,probably,2120,50,easy to read,11-04-2019 15:01
281,1.0,216.0,False,Non-designer,2,recognition,10,arial,falling,word,Sure not seen,1.0,not seen,faith,3168,50,easy to read,11-04-2019 15:01
282,1.0,216.0,False,Non-designer,2,recognition,11,arial,oppech,non-word,Sure seen,1.0,seen,oppech,2263,50,easy to read,11-04-2019 15:01
283,1.0,216.0,False,Non-designer,2,recognition,12,arial,socialist,word,Sure not seen,1.0,not seen,social,2043,50,easy to read,11-04-2019 15:01
284,1.0,216.0,False,Non-designer,2,recognition,13,arial,refengement,non-word,Sure seen,0.0,not seen,refectuning,2609,50,easy to read,11-04-2019 15:01
285,1.0,216.0,False,Non-designer,2,recognition,14,arial,environment,word,Sure seen,1.0,seen,environment,1709,50,easy to read,11-04-2019 15:01
286,1.0,216.0,False,Non-designer,2,recognition,15,arial,mastruntion,non-word,Sure not seen,1.0,not seen,martain,2150,50,easy to read,11-04-2019 15:01
287,1.0,216.0,False,Non-designer,2,recognition,16,arial,resources,word,Sure seen,1.0,seen,resources,2041,50,easy to read,11-04-2019 15:01
288,1.0,288.0,False,Non-designer,1,lexical,1,arial,chance,word,Sure word,1.0,,,3293,67,very easy to read,11-04-2019 14:54
289,1.0,288.0,False,Non-designer,1,lexical,2,arial,argument,word,Sure word,1.0,,,5799,67,very easy to read,11-04-2019 14:54
290,1.0,288.0,False,Non-designer,1,lexical,3,arial,aniond,non-word,Probably non-word,1.0,,,6548,67,very easy to read,11-04-2019 14:54
291,1.0,288.0,False,Non-designer,1,lexical,4,arial,birth,word,Sure word,1.0,,,2954,67,very easy to read,11-04-2019 14:54
292,1.0,288.0,False,Non-designer,1,lexical,5,arial,gromish,non-word,Probably word,0.0,,,5423,67,very easy to read,11-04-2019 14:54
293,1.0,288.0,False,Non-designer,1,lexical,6,arial,griends,non-word,Sure non-word,1.0,,,7358,67,very easy to read,11-04-2019 14:54
294,1.0,288.0,False,Non-designer,1,lexical,7,arial,chairman,word,Sure word,1.0,,,3974,67,very easy to read,11-04-2019 14:54
295,1.0,288.0,False,Non-designer,1,lexical,8,arial,sharp,word,Sure word,1.0,,,2851,67,very easy to read,11-04-2019 14:54
296,1.0,288.0,False,Non-designer,1,lexical,9,arial,speciah,non-word,Sure non-word,1.0,,,10310,67,very easy to read,11-04-2019 14:54
297,1.0,288.0,False,Non-designer,1,lexical,10,arial,better,word,Sure word,1.0,,,3508,67,very easy to read,11-04-2019 14:54
298,1.0,288.0,False,Non-designer,1,lexical,11,arial,hapording,non-word,Sure non-word,1.0,,,9097,67,very easy to read,11-04-2019 14:54
299,1.0,288.0,False,Non-designer,1,lexical,12,arial,distected,non-word,Sure non-word,1.0,,,6486,67,very easy to read,11-04-2019 14:54
300,1.0,288.0,False,Non-designer,1,lexical,13,arial,esserwing,non-word,Sure non-word,1.0,,,3737,67,very easy to read,11-04-2019 14:54
301,1.0,288.0,False,Non-designer,1,lexical,14,arial,morking,non-word,Sure non-word,1.0,,,3925,67,very easy to read,11-04-2019 14:54
302,1.0,288.0,False,Non-designer,1,lexical,15,arial,meade,non-word,Sure word,0.0,,,7155,67,very easy to read,11-04-2019 14:54
303,1.0,288.0,False,Non-designer,1,lexical,16,arial,alive,word,Sure word,1.0,,,7044,67,very easy to read,11-04-2019 14:54
304,1.0,288.0,False,Non-designer,1,lexical,17,arial,individual,word,Sure word,1.0,,,2900,67,very easy to read,11-04-2019 14:54
305,1.0,288.0,False,Non-designer,1,lexical,18,arial,finished,word,Sure word,1.0,,,2967,67,very easy to read,11-04-2019 14:54
306,1.0,288.0,False,Non-designer,1,lexical,19,arial,fashion,word,Sure word,1.0,,,2315,67,very easy to read,11-04-2019 14:54
307,1.0,288.0,False,Non-designer,1,lexical,20,arial,repartment,non-word,Probably non-word,1.0,,,10595,67,very easy to read,11-04-2019 14:54
308,1.0,288.0,False,Non-designer,1,recognition,1,arial,guarpapers,non-word,Sure not seen,1.0,not seen,gromish,7003,67,very easy to read,11-04-2019 14:54
309,1.0,288.0,False,Non-designer,1,recognition,2,arial,around,word,Sure not seen,1.0,not seen,argument,2913,67,very easy to read,11-04-2019 14:54
310,1.0,288.0,False,Non-designer,1,recognition,3,arial,shock,word,Sure not seen,1.0,not seen,sharp,4167,67,very easy to read,11-04-2019 14:54
311,1.0,288.0,False,Non-designer,1,recognition,4,arial,anotter,non-word,Sure not seen,1.0,not seen,aniond,6395,67,very easy to read,11-04-2019 14:54
312,1.0,288.0,False,Non-designer,1,recognition,5,arial,birth,word,Sure seen,1.0,seen,birth,2997,67,very easy to read,11-04-2019 14:54
313,1.0,288.0,False,Non-designer,1,recognition,6,arial,griends,non-word,Sure seen,1.0,seen,griends,2838,67,very easy to read,11-04-2019 14:54
314,1.0,288.0,False,Non-designer,1,recognition,7,arial,allow,word,Sure not seen,1.0,not seen,alive,4073,67,very easy to read,11-04-2019 14:54
315,1.0,288.0,False,Non-designer,1,recognition,8,arial,chairman,word,Probably seen,1.0,seen,chairman,9625,67,very easy to read,11-04-2019 14:54
316,1.0,288.0,False,Non-designer,1,recognition,9,arial,between,word,Sure not seen,1.0,not seen,better,6946,67,very easy to read,11-04-2019 14:54
317,1.0,288.0,False,Non-designer,1,recognition,10,arial,meaftsmas,non-word,Sure not seen,1.0,not seen,meade,5009,67,very easy to read,11-04-2019 14:54
318,1.0,288.0,False,Non-designer,1,recognition,11,arial,distected,non-word,Sure seen,1.0,seen,distected,3108,67,very easy to read,11-04-2019 14:54
319,1.0,288.0,False,Non-designer,1,recognition,12,arial,chance,word,Sure seen,1.0,seen,chance,2514,67,very easy to read,11-04-2019 14:54
320,1.0,288.0,False,Non-designer,1,recognition,13,arial,repearated,non-word,Probably seen,0.0,not seen,repartment,8271,67,very easy to read,11-04-2019 14:54
321,1.0,288.0,False,Non-designer,1,recognition,14,arial,speciah,non-word,Sure seen,1.0,seen,speciah,2512,67,very easy to read,11-04-2019 14:54
322,1.0,288.0,False,Non-designer,1,recognition,15,arial,fashion,word,Sure seen,1.0,seen,fashion,2007,67,very easy to read,11-04-2019 14:54
323,1.0,288.0,False,Non-designer,1,recognition,16,arial,esserwing,non-word,Probably not seen,0.0,seen,esserwing,12232,67,very easy to read,11-04-2019 14:54
324,1.0,288.0,False,Non-designer,2,lexical,1,sansforgetica,statement,word,Sure word,1.0,,,11207,62,ok,11-04-2019 14:54
325,1.0,288.0,False,Non-designer,2,lexical,2,sansforgetica,rectined,non-word,Sure non-word,1.0,,,13040,62,ok,11-04-2019 14:54
326,1.0,288.0,False,Non-designer,2,lexical,3,sansforgetica,trial,word,Sure word,1.0,,,2527,62,ok,11-04-2019 14:54
327,1.0,288.0,False,Non-designer,2,lexical,4,sansforgetica,undulained,non-word,Sure non-word,1.0,,,8219,62,ok,11-04-2019 14:54
328,1.0,288.0,False,Non-designer,2,lexical,5,sansforgetica,uncregately,non-word,Sure non-word,1.0,,,21282,62,ok,11-04-2019 14:54
329,1.0,288.0,False,Non-designer,2,lexical,6,sansforgetica,giving,word,Sure word,1.0,,,2342,62,ok,11-04-2019 14:54
330,1.0,288.0,False,Non-designer,2,lexical,7,sansforgetica,moventive,non-word,Probably non-word,1.0,,,9610,62,ok,11-04-2019 14:54
331,1.0,288.0,False,Non-designer,2,lexical,8,sansforgetica,fingers,word,Sure word,1.0,,,2443,62,ok,11-04-2019 14:54
332,1.0,288.0,False,Non-designer,2,lexical,9,sansforgetica,whing,non-word,Sure word,0.0,,,12172,62,ok,11-04-2019 14:54
333,1.0,288.0,False,Non-designer,2,lexical,10,sansforgetica,generation,word,Sure word,1.0,,,2403,62,ok,11-04-2019 14:54
334,1.0,288.0,False,Non-designer,2,lexical,11,sansforgetica,employment,word,Sure word,1.0,,,2653,62,ok,11-04-2019 14:54
335,1.0,288.0,False,Non-designer,2,lexical,12,sansforgetica,scholopment,non-word,Probably non-word,1.0,,,9260,62,ok,11-04-2019 14:54
336,1.0,288.0,False,Non-designer,2,lexical,13,sansforgetica,round,word,Sure word,1.0,,,2399,62,ok,11-04-2019 14:54
337,1.0,288.0,False,Non-designer,2,lexical,14,sansforgetica,catiquition,non-word,Sure non-word,1.0,,,6065,62,ok,11-04-2019 14:54
338,1.0,288.0,False,Non-designer,2,lexical,15,sansforgetica,driftion,non-word,Sure non-word,1.0,,,3446,62,ok,11-04-2019 14:54
339,1.0,288.0,False,Non-designer,2,lexical,16,sansforgetica,calls,word,Sure word,1.0,,,2624,62,ok,11-04-2019 14:54
340,1.0,288.0,False,Non-designer,2,lexical,17,sansforgetica,tunning,non-word,Sure word,0.0,,,3408,62,ok,11-04-2019 14:54
341,1.0,288.0,False,Non-designer,2,lexical,18,sansforgetica,created,word,Sure word,1.0,,,2434,62,ok,11-04-2019 14:54
342,1.0,288.0,False,Non-designer,2,lexical,19,sansforgetica,worelete,non-word,Sure non-word,1.0,,,5890,62,ok,11-04-2019 14:54
343,1.0,288.0,False,Non-designer,2,lexical,20,sansforgetica,shoes,word,Sure word,1.0,,,2399,62,ok,11-04-2019 14:54
344,1.0,288.0,False,Non-designer,2,recognition,1,sansforgetica,royal,word,Sure not seen,1.0,not seen,round,13313,62,ok,11-04-2019 14:54
345,1.0,288.0,False,Non-designer,2,recognition,2,sansforgetica,fingers,word,Sure seen,1.0,seen,fingers,2328,62,ok,11-04-2019 14:54
346,1.0,288.0,False,Non-designer,2,recognition,3,sansforgetica,trial,word,Sure seen,1.0,seen,trial,2277,62,ok,11-04-2019 14:54
347,1.0,288.0,False,Non-designer,2,recognition,4,sansforgetica,shook,word,Probably seen,0.0,not seen,shoes,7398,62,ok,11-04-2019 14:54
348,1.0,288.0,False,Non-designer,2,recognition,5,sansforgetica,drison,non-word,Sure not seen,1.0,not seen,driftion,4599,62,ok,11-04-2019 14:54
349,1.0,288.0,False,Non-designer,2,recognition,6,sansforgetica,wicking,non-word,Sure not seen,1.0,not seen,whing,2470,62,ok,11-04-2019 14:54
350,1.0,288.0,False,Non-designer,2,recognition,7,sansforgetica,catuirented,non-word,Probably not seen,1.0,not seen,catiquition,6217,62,ok,11-04-2019 14:54
351,1.0,288.0,False,Non-designer,2,recognition,8,sansforgetica,rectined,non-word,Sure seen,1.0,seen,rectined,4422,62,ok,11-04-2019 14:54
352,1.0,288.0,False,Non-designer,2,recognition,9,sansforgetica,scholopment,non-word,Sure seen,1.0,seen,scholopment,2565,62,ok,11-04-2019 14:54
353,1.0,288.0,False,Non-designer,2,recognition,10,sansforgetica,created,word,Sure seen,1.0,seen,created,2575,62,ok,11-04-2019 14:54
354,1.0,288.0,False,Non-designer,2,recognition,11,sansforgetica,empty,word,Probably not seen,1.0,not seen,employment,8408,62,ok,11-04-2019 14:54
355,1.0,288.0,False,Non-designer,2,recognition,12,sansforgetica,moventive,non-word,Sure seen,1.0,seen,moventive,2836,62,ok,11-04-2019 14:54
356,1.0,288.0,False,Non-designer,2,recognition,13,sansforgetica,uncregately,non-word,Sure seen,1.0,seen,uncregately,3837,62,ok,11-04-2019 14:54
357,1.0,288.0,False,Non-designer,2,recognition,14,sansforgetica,gently,word,Sure not seen,1.0,not seen,generation,4820,62,ok,11-04-2019 14:54
358,1.0,288.0,False,Non-designer,2,recognition,15,sansforgetica,worls,non-word,Sure not seen,1.0,not seen,worelete,3230,62,ok,11-04-2019 14:54
359,1.0,288.0,False,Non-designer,2,recognition,16,sansforgetica,statement,word,Sure seen,1.0,seen,statement,2948,62,ok,11-04-2019 14:54
360,1.0,360.0,False,Non-designer,1,lexical,1,sansforgetica,nontresnate,non-word,Probably non-word,1.0,,,5858,71,ok,11-04-2019 14:38
361,1.0,360.0,False,Non-designer,1,lexical,2,sansforgetica,instead,word,Sure word,1.0,,,1807,71,ok,11-04-2019 14:38
362,1.0,360.0,False,Non-designer,1,lexical,3,sansforgetica,father,word,Sure word,1.0,,,1601,71,ok,11-04-2019 14:38
363,1.0,360.0,False,Non-designer,1,lexical,4,sansforgetica,priend,non-word,Sure non-word,1.0,,,2064,71,ok,11-04-2019 14:38
364,1.0,360.0,False,Non-designer,1,lexical,5,sansforgetica,hands,word,Sure word,1.0,,,1726,71,ok,11-04-2019 14:38
365,1.0,360.0,False,Non-designer,1,lexical,6,sansforgetica,enreloping,non-word,Probably non-word,1.0,,,3817,71,ok,11-04-2019 14:38
366,1.0,360.0,False,Non-designer,1,lexical,7,sansforgetica,catuirented,non-word,Probably non-word,1.0,,,3489,71,ok,11-04-2019 14:38
367,1.0,360.0,False,Non-designer,1,lexical,8,sansforgetica,macking,non-word,Probably word,0.0,,,3812,71,ok,11-04-2019 14:38
368,1.0,360.0,False,Non-designer,1,lexical,9,sansforgetica,being,word,Sure word,1.0,,,1524,71,ok,11-04-2019 14:38
369,1.0,360.0,False,Non-designer,1,lexical,10,sansforgetica,immediately,word,Sure word,1.0,,,1740,71,ok,11-04-2019 14:38
370,1.0,360.0,False,Non-designer,1,lexical,11,sansforgetica,shock,word,Sure word,1.0,,,1403,71,ok,11-04-2019 14:38
371,1.0,360.0,False,Non-designer,1,lexical,12,sansforgetica,indernoom,non-word,Probably non-word,1.0,,,4100,71,ok,11-04-2019 14:38
372,1.0,360.0,False,Non-designer,1,lexical,13,sansforgetica,intersive,non-word,Probably word,0.0,,,3911,71,ok,11-04-2019 14:38
373,1.0,360.0,False,Non-designer,1,lexical,14,sansforgetica,maithfular,non-word,Sure non-word,1.0,,,2138,71,ok,11-04-2019 14:38
374,1.0,360.0,False,Non-designer,1,lexical,15,sansforgetica,plactarshed,non-word,Sure non-word,1.0,,,4503,71,ok,11-04-2019 14:38
375,1.0,360.0,False,Non-designer,1,lexical,16,sansforgetica,discritunds,non-word,Sure non-word,1.0,,,2825,71,ok,11-04-2019 14:38
376,1.0,360.0,False,Non-designer,1,lexical,17,sansforgetica,escape,word,Sure word,1.0,,,1503,71,ok,11-04-2019 14:38
377,1.0,360.0,False,Non-designer,1,lexical,18,sansforgetica,travel,word,Sure word,1.0,,,1287,71,ok,11-04-2019 14:38
378,1.0,360.0,False,Non-designer,1,lexical,19,sansforgetica,press,word,Sure word,1.0,,,1554,71,ok,11-04-2019 14:38
379,1.0,360.0,False,Non-designer,1,lexical,20,sansforgetica,thinking,word,Sure word,1.0,,,1720,71,ok,11-04-2019 14:38
380,1.0,360.0,False,Non-designer,1,recognition,1,sansforgetica,shoes,word,Sure not seen,1.0,not seen,shock,3491,71,ok,11-04-2019 14:38
381,1.0,360.0,False,Non-designer,1,recognition,2,sansforgetica,being,word,Sure seen,1.0,seen,being,1902,71,ok,11-04-2019 14:38
382,1.0,360.0,False,Non-designer,1,recognition,3,sansforgetica,intersive,non-word,Sure seen,1.0,seen,intersive,1658,71,ok,11-04-2019 14:38
383,1.0,360.0,False,Non-designer,1,recognition,4,sansforgetica,insurance,word,Sure not seen,1.0,not seen,instead,1946,71,ok,11-04-2019 14:38
384,1.0,360.0,False,Non-designer,1,recognition,5,sansforgetica,caughtly,non-word,Sure not seen,1.0,not seen,catuirented,1661,71,ok,11-04-2019 14:38
385,1.0,360.0,False,Non-designer,1,recognition,6,sansforgetica,importance,word,Probably not seen,1.0,not seen,immediately,3527,71,ok,11-04-2019 14:38
386,1.0,360.0,False,Non-designer,1,recognition,7,sansforgetica,primals,non-word,Sure not seen,1.0,not seen,priend,2425,71,ok,11-04-2019 14:38
387,1.0,360.0,False,Non-designer,1,recognition,8,sansforgetica,plandstions,non-word,Sure not seen,1.0,not seen,plactarshed,2678,71,ok,11-04-2019 14:38
388,1.0,360.0,False,Non-designer,1,recognition,9,sansforgetica,father,word,Sure seen,1.0,seen,father,1486,71,ok,11-04-2019 14:38
389,1.0,360.0,False,Non-designer,1,recognition,10,sansforgetica,nontresnate,non-word,Sure seen,1.0,seen,nontresnate,1496,71,ok,11-04-2019 14:38
390,1.0,360.0,False,Non-designer,1,recognition,11,sansforgetica,enreloping,non-word,Sure seen,1.0,seen,enreloping,1434,71,ok,11-04-2019 14:38
391,1.0,360.0,False,Non-designer,1,recognition,12,sansforgetica,indernoom,non-word,Sure seen,1.0,seen,indernoom,1925,71,ok,11-04-2019 14:38
392,1.0,360.0,False,Non-designer,1,recognition,13,sansforgetica,macrector,non-word,Sure not seen,1.0,not seen,macking,1977,71,ok,11-04-2019 14:38
393,1.0,360.0,False,Non-designer,1,recognition,14,sansforgetica,happened,word,Sure not seen,1.0,not seen,hands,1710,71,ok,11-04-2019 14:38
394,1.0,360.0,False,Non-designer,1,recognition,15,sansforgetica,thinking,word,Sure seen,1.0,seen,thinking,1645,71,ok,11-04-2019 14:38
395,1.0,360.0,False,Non-designer,1,recognition,16,sansforgetica,escape,word,Sure seen,1.0,seen,escape,2830,71,ok,11-04-2019 14:38
396,1.0,360.0,False,Non-designer,2,lexical,1,arial,spoke,word,Sure word,1.0,,,5463,87,very easy to read,11-04-2019 14:38
397,1.0,360.0,False,Non-designer,2,lexical,2,arial,length,word,Sure word,1.0,,,1314,87,very easy to read,11-04-2019 14:38
398,1.0,360.0,False,Non-designer,2,lexical,3,arial,alive,word,Sure word,1.0,,,1245,87,very easy to read,11-04-2019 14:38
399,1.0,360.0,False,Non-designer,2,lexical,4,arial,drive,word,Sure word,1.0,,,1251,87,very easy to read,11-04-2019 14:38
400,1.0,360.0,False,Non-designer,2,lexical,5,arial,compritable,non-word,Sure non-word,1.0,,,2465,87,very easy to read,11-04-2019 14:38
401,1.0,360.0,False,Non-designer,2,lexical,6,arial,planning,word,Sure word,1.0,,,1446,87,very easy to read,11-04-2019 14:38
402,1.0,360.0,False,Non-designer,2,lexical,7,arial,broken,word,Sure word,1.0,,,1223,87,very easy to read,11-04-2019 14:38
403,1.0,360.0,False,Non-designer,2,lexical,8,arial,masuld,non-word,Sure non-word,1.0,,,1948,87,very easy to read,11-04-2019 14:38
404,1.0,360.0,False,Non-designer,2,lexical,9,arial,fighly,non-word,Sure non-word,1.0,,,2334,87,very easy to read,11-04-2019 14:38
405,1.0,360.0,False,Non-designer,2,lexical,10,arial,expermists,non-word,Sure non-word,1.0,,,3081,87,very easy to read,11-04-2019 14:38
406,1.0,360.0,False,Non-designer,2,lexical,11,arial,airport,word,Sure word,1.0,,,1395,87,very easy to read,11-04-2019 14:38
407,1.0,360.0,False,Non-designer,2,lexical,12,arial,incormately,non-word,Sure non-word,1.0,,,1889,87,very easy to read,11-04-2019 14:38
408,1.0,360.0,False,Non-designer,2,lexical,13,arial,little,word,Sure word,1.0,,,1529,87,very easy to read,11-04-2019 14:38
409,1.0,360.0,False,Non-designer,2,lexical,14,arial,couled,non-word,Probably non-word,1.0,,,1974,87,very easy to read,11-04-2019 14:38
410,1.0,360.0,False,Non-designer,2,lexical,15,arial,mullected,non-word,Probably non-word,1.0,,,2218,87,very easy to read,11-04-2019 14:38
411,1.0,360.0,False,Non-designer,2,lexical,16,arial,conventment,non-word,Sure non-word,1.0,,,2731,87,very easy to read,11-04-2019 14:38
412,1.0,360.0,False,Non-designer,2,lexical,17,arial,ceady,non-word,Sure non-word,1.0,,,2019,87,very easy to read,11-04-2019 14:38
413,1.0,360.0,False,Non-designer,2,lexical,18,arial,found,word,Sure word,1.0,,,1505,87,very easy to read,11-04-2019 14:38
414,1.0,360.0,False,Non-designer,2,lexical,19,arial,department,word,Sure word,1.0,,,1177,87,very easy to read,11-04-2019 14:38
415,1.0,360.0,False,Non-designer,2,lexical,20,arial,verection,non-word,Probably non-word,1.0,,,1928,87,very easy to read,11-04-2019 14:38
416,1.0,360.0,False,Non-designer,2,recognition,1,arial,fighly,non-word,Sure seen,1.0,seen,fighly,2185,87,very easy to read,11-04-2019 14:38
417,1.0,360.0,False,Non-designer,2,recognition,2,arial,department,word,Probably seen,1.0,seen,department,5211,87,very easy to read,11-04-2019 14:38
418,1.0,360.0,False,Non-designer,2,recognition,3,arial,brother,word,Sure not seen,1.0,not seen,broken,1855,87,very easy to read,11-04-2019 14:38
419,1.0,360.0,False,Non-designer,2,recognition,4,arial,ceady,non-word,Sure seen,1.0,seen,ceady,2240,87,very easy to read,11-04-2019 14:38
420,1.0,360.0,False,Non-designer,2,recognition,5,arial,found,word,Sure seen,1.0,seen,found,1416,87,very easy to read,11-04-2019 14:38
421,1.0,360.0,False,Non-designer,2,recognition,6,arial,alive,word,Sure seen,1.0,seen,alive,1455,87,very easy to read,11-04-2019 14:38
422,1.0,360.0,False,Non-designer,2,recognition,7,arial,driving,word,Probably seen,0.0,not seen,drive,2192,87,very easy to read,11-04-2019 14:38
423,1.0,360.0,False,Non-designer,2,recognition,8,arial,letters,word,Sure not seen,1.0,not seen,length,1631,87,very easy to read,11-04-2019 14:38
424,1.0,360.0,False,Non-designer,2,recognition,9,arial,verved,non-word,Sure not seen,1.0,not seen,verection,1804,87,very easy to read,11-04-2019 14:38
425,1.0,360.0,False,Non-designer,2,recognition,10,arial,murching,non-word,Sure not seen,1.0,not seen,mullected,1362,87,very easy to read,11-04-2019 14:38
426,1.0,360.0,False,Non-designer,2,recognition,11,arial,conventment,non-word,Sure seen,1.0,seen,conventment,1833,87,very easy to read,11-04-2019 14:38
427,1.0,360.0,False,Non-designer,2,recognition,12,arial,compritable,non-word,Sure seen,1.0,seen,compritable,1508,87,very easy to read,11-04-2019 14:38
428,1.0,360.0,False,Non-designer,2,recognition,13,arial,little,word,Probably seen,1.0,seen,little,3278,87,very easy to read,11-04-2019 14:38
429,1.0,360.0,False,Non-designer,2,recognition,14,arial,expernoming,non-word,Sure not seen,1.0,not seen,expermists,1849,87,very easy to read,11-04-2019 14:38
430,1.0,360.0,False,Non-designer,2,recognition,15,arial,plans,word,Probably not seen,1.0,not seen,planning,3101,87,very easy to read,11-04-2019 14:38
431,1.0,360.0,False,Non-designer,2,recognition,16,arial,counciation,non-word,Sure not seen,1.0,not seen,couled,2222,87,very easy to read,11-04-2019 14:38
432,1.0,432.0,False,Non-designer,1,lexical,1,sansforgetica,incriance,non-word,Probably non-word,1.0,,,6038,50,easy to read,11-04-2019 14:26
433,1.0,432.0,False,Non-designer,1,lexical,2,sansforgetica,fathed,non-word,Probably non-word,1.0,,,7630,50,easy to read,11-04-2019 14:26
434,1.0,432.0,False,Non-designer,1,lexical,3,sansforgetica,bread,word,Sure word,1.0,,,1725,50,easy to read,11-04-2019 14:26
435,1.0,432.0,False,Non-designer,1,lexical,4,sansforgetica,waste,word,Sure word,1.0,,,1404,50,easy to read,11-04-2019 14:26
436,1.0,432.0,False,Non-designer,1,lexical,5,sansforgetica,amerying,non-word,Probably word,0.0,,,2830,50,easy to read,11-04-2019 14:26
437,1.0,432.0,False,Non-designer,1,lexical,6,sansforgetica,peace,word,Sure word,1.0,,,1451,50,easy to read,11-04-2019 14:26
438,1.0,432.0,False,Non-designer,1,lexical,7,sansforgetica,longer,word,Sure word,1.0,,,1742,50,easy to read,11-04-2019 14:26
439,1.0,432.0,False,Non-designer,1,lexical,8,sansforgetica,hervent,non-word,Sure non-word,1.0,,,2942,50,easy to read,11-04-2019 14:26
440,1.0,432.0,False,Non-designer,1,lexical,9,sansforgetica,support,word,Sure word,1.0,,,1619,50,easy to read,11-04-2019 14:26
441,1.0,432.0,False,Non-designer,1,lexical,10,sansforgetica,noticed,word,Sure word,1.0,,,1800,50,easy to read,11-04-2019 14:26
442,1.0,432.0,False,Non-designer,1,lexical,11,sansforgetica,major,word,Sure word,1.0,,,1028,50,easy to read,11-04-2019 14:26
443,1.0,432.0,False,Non-designer,1,lexical,12,sansforgetica,agaim,non-word,Sure non-word,1.0,,,3531,50,easy to read,11-04-2019 14:26
444,1.0,432.0,False,Non-designer,1,lexical,13,sansforgetica,appressite,non-word,Probably non-word,1.0,,,2906,50,easy to read,11-04-2019 14:26
445,1.0,432.0,False,Non-designer,1,lexical,14,sansforgetica,shown,word,Sure word,1.0,,,1884,50,easy to read,11-04-2019 14:26
446,1.0,432.0,False,Non-designer,1,lexical,15,sansforgetica,simeweres,non-word,Sure non-word,1.0,,,4333,50,easy to read,11-04-2019 14:26
447,1.0,432.0,False,Non-designer,1,lexical,16,sansforgetica,arges,non-word,Sure non-word,1.0,,,2913,50,easy to read,11-04-2019 14:26
448,1.0,432.0,False,Non-designer,1,lexical,17,sansforgetica,mutomphers,non-word,Probably non-word,1.0,,,2468,50,easy to read,11-04-2019 14:26
449,1.0,432.0,False,Non-designer,1,lexical,18,sansforgetica,difficulty,word,Sure word,1.0,,,1311,50,easy to read,11-04-2019 14:26
450,1.0,432.0,False,Non-designer,1,lexical,19,sansforgetica,direct,word,Sure word,1.0,,,1296,50,easy to read,11-04-2019 14:26
451,1.0,432.0,False,Non-designer,1,lexical,20,sansforgetica,shough,non-word,Probably non-word,1.0,,,1886,50,easy to read,11-04-2019 14:26
452,1.0,432.0,False,Non-designer,1,recognition,1,sansforgetica,looking,word,Probably not seen,1.0,not seen,longer,4980,50,easy to read,11-04-2019 14:26
453,1.0,432.0,False,Non-designer,1,recognition,2,sansforgetica,majority,word,Probably not seen,1.0,not seen,major,1950,50,easy to read,11-04-2019 14:26
454,1.0,432.0,False,Non-designer,1,recognition,3,sansforgetica,incriance,non-word,Sure seen,1.0,seen,incriance,2077,50,easy to read,11-04-2019 14:26
455,1.0,432.0,False,Non-designer,1,recognition,4,sansforgetica,break,word,Probably not seen,1.0,not seen,bread,1547,50,easy to read,11-04-2019 14:26
456,1.0,432.0,False,Non-designer,1,recognition,5,sansforgetica,waste,word,Sure seen,1.0,seen,waste,1240,50,easy to read,11-04-2019 14:26
457,1.0,432.0,False,Non-designer,1,recognition,6,sansforgetica,amerying,non-word,Sure seen,1.0,seen,amerying,1332,50,easy to read,11-04-2019 14:26
458,1.0,432.0,False,Non-designer,1,recognition,7,sansforgetica,arould,non-word,Probably not seen,1.0,not seen,arges,1841,50,easy to read,11-04-2019 14:26
459,1.0,432.0,False,Non-designer,1,recognition,8,sansforgetica,againes,non-word,Probably not seen,1.0,not seen,agaim,1391,50,easy to read,11-04-2019 14:26
460,1.0,432.0,False,Non-designer,1,recognition,9,sansforgetica,shough,non-word,Sure seen,1.0,seen,shough,1435,50,easy to read,11-04-2019 14:26
461,1.0,432.0,False,Non-designer,1,recognition,10,sansforgetica,peace,word,Sure seen,1.0,seen,peace,1315,50,easy to read,11-04-2019 14:26
462,1.0,432.0,False,Non-designer,1,recognition,11,sansforgetica,noticed,word,Sure seen,1.0,seen,noticed,1412,50,easy to read,11-04-2019 14:26
463,1.0,432.0,False,Non-designer,1,recognition,12,sansforgetica,hervent,non-word,Probably seen,1.0,seen,hervent,2361,50,easy to read,11-04-2019 14:26
464,1.0,432.0,False,Non-designer,1,recognition,13,sansforgetica,favadred,non-word,Probably not seen,1.0,not seen,fathed,1722,50,easy to read,11-04-2019 14:26
465,1.0,432.0,False,Non-designer,1,recognition,14,sansforgetica,siminizers,non-word,Probably not seen,1.0,not seen,simeweres,1509,50,easy to read,11-04-2019 14:26
466,1.0,432.0,False,Non-designer,1,recognition,15,sansforgetica,difficulty,word,Sure seen,1.0,seen,difficulty,1698,50,easy to read,11-04-2019 14:26
467,1.0,432.0,False,Non-designer,1,recognition,16,sansforgetica,supposed,word,Probably seen,0.0,not seen,support,1536,50,easy to read,11-04-2019 14:26
468,1.0,432.0,False,Non-designer,2,lexical,1,arial,impreit,non-word,Probably non-word,1.0,,,2613,50,very easy to read,11-04-2019 14:26
469,1.0,432.0,False,Non-designer,2,lexical,2,arial,parliament,word,Sure word,1.0,,,1382,50,very easy to read,11-04-2019 14:26
470,1.0,432.0,False,Non-designer,2,lexical,3,arial,safety,word,Sure word,1.0,,,2092,50,very easy to read,11-04-2019 14:26
471,1.0,432.0,False,Non-designer,2,lexical,4,arial,disarruping,non-word,Probably non-word,1.0,,,1510,50,very easy to read,11-04-2019 14:26
472,1.0,432.0,False,Non-designer,2,lexical,5,arial,contrimenty,non-word,Probably non-word,1.0,,,1222,50,very easy to read,11-04-2019 14:26
473,1.0,432.0,False,Non-designer,2,lexical,6,arial,added,word,Sure word,1.0,,,2186,50,very easy to read,11-04-2019 14:26
474,1.0,432.0,False,Non-designer,2,lexical,7,arial,sleat,non-word,Sure word,0.0,,,1294,50,very easy to read,11-04-2019 14:26
475,1.0,432.0,False,Non-designer,2,lexical,8,arial,occasion,word,Sure word,1.0,,,1058,50,very easy to read,11-04-2019 14:26
476,1.0,432.0,False,Non-designer,2,lexical,9,arial,villsite,non-word,Probably non-word,1.0,,,1449,50,very easy to read,11-04-2019 14:26
477,1.0,432.0,False,Non-designer,2,lexical,10,arial,normal,word,Sure word,1.0,,,1296,50,very easy to read,11-04-2019 14:26
478,1.0,432.0,False,Non-designer,2,lexical,11,arial,pressure,word,Sure word,1.0,,,1034,50,very easy to read,11-04-2019 14:26
479,1.0,432.0,False,Non-designer,2,lexical,12,arial,twice,word,Sure word,1.0,,,796,50,very easy to read,11-04-2019 14:26
480,1.0,432.0,False,Non-designer,2,lexical,13,arial,prosequents,non-word,Sure non-word,1.0,,,2644,50,very easy to read,11-04-2019 14:26
481,1.0,432.0,False,Non-designer,2,lexical,14,arial,assappead,non-word,Sure non-word,1.0,,,1504,50,very easy to read,11-04-2019 14:26
482,1.0,432.0,False,Non-designer,2,lexical,15,arial,withous,non-word,Probably non-word,1.0,,,1690,50,very easy to read,11-04-2019 14:26
483,1.0,432.0,False,Non-designer,2,lexical,16,arial,parts,word,Sure word,1.0,,,1229,50,very easy to read,11-04-2019 14:26
484,1.0,432.0,False,Non-designer,2,lexical,17,arial,discovered,word,Sure word,1.0,,,1065,50,very easy to read,11-04-2019 14:26
485,1.0,432.0,False,Non-designer,2,lexical,18,arial,grocks,non-word,Probably non-word,1.0,,,1812,50,very easy to read,11-04-2019 14:26
486,1.0,432.0,False,Non-designer,2,lexical,19,arial,influence,word,Sure word,1.0,,,944,50,very easy to read,11-04-2019 14:26
487,1.0,432.0,False,Non-designer,2,lexical,20,arial,seanspother,non-word,Probably non-word,1.0,,,1459,50,very easy to read,11-04-2019 14:26
488,1.0,432.0,False,Non-designer,2,recognition,1,arial,wituraman,non-word,Sure not seen,1.0,not seen,withous,3941,50,very easy to read,11-04-2019 14:26
489,1.0,432.0,False,Non-designer,2,recognition,2,arial,impreit,non-word,Probably not seen,0.0,seen,impreit,1876,50,very easy to read,11-04-2019 14:26
490,1.0,432.0,False,Non-designer,2,recognition,3,arial,seanspother,non-word,Sure seen,1.0,seen,seanspother,1365,50,very easy to read,11-04-2019 14:26
491,1.0,432.0,False,Non-designer,2,recognition,4,arial,sligince,non-word,Probably not seen,1.0,not seen,sleat,1627,50,very easy to read,11-04-2019 14:26
492,1.0,432.0,False,Non-designer,2,recognition,5,arial,asserworly,non-word,Probably not seen,1.0,not seen,assappead,1664,50,very easy to read,11-04-2019 14:26
493,1.0,432.0,False,Non-designer,2,recognition,6,arial,violetic,non-word,Probably not seen,1.0,not seen,villsite,1005,50,very easy to read,11-04-2019 14:26
494,1.0,432.0,False,Non-designer,2,recognition,7,arial,safety,word,Sure seen,1.0,seen,safety,1311,50,very easy to read,11-04-2019 14:26
495,1.0,432.0,False,Non-designer,2,recognition,8,arial,contrimenty,non-word,Probably not seen,0.0,seen,contrimenty,1447,50,very easy to read,11-04-2019 14:26
496,1.0,432.0,False,Non-designer,2,recognition,9,arial,twice,word,Probably not seen,0.0,seen,twice,1683,50,very easy to read,11-04-2019 14:26
497,1.0,432.0,False,Non-designer,2,recognition,10,arial,normal,word,Sure seen,1.0,seen,normal,1380,50,very easy to read,11-04-2019 14:26
498,1.0,432.0,False,Non-designer,2,recognition,11,arial,information,word,Probably not seen,1.0,not seen,influence,1233,50,very easy to read,11-04-2019 14:26
499,1.0,432.0,False,Non-designer,2,recognition,12,arial,passing,word,Probably not seen,1.0,not seen,parts,1212,50,very easy to read,11-04-2019 14:26
500,1.0,432.0,False,Non-designer,2,recognition,13,arial,grocks,non-word,Sure seen,1.0,seen,grocks,1578,50,very easy to read,11-04-2019 14:26
501,1.0,432.0,False,Non-designer,2,recognition,14,arial,discussed,word,Probably not seen,1.0,not seen,discovered,2057,50,very easy to read,11-04-2019 14:26
502,1.0,432.0,False,Non-designer,2,recognition,15,arial,pretty,word,Probably not seen,1.0,not seen,pressure,2201,50,very easy to read,11-04-2019 14:26
503,1.0,432.0,False,Non-designer,2,recognition,16,arial,occasion,word,Sure seen,1.0,seen,occasion,1465,50,very easy to read,11-04-2019 14:26
504,1.0,504.0,False,Graphic designer,1,lexical,1,sansforgetica,lithin,non-word,Probably non-word,1.0,,,11890,18,ok,11-04-2019 13:09
505,1.0,504.0,False,Graphic designer,1,lexical,2,sansforgetica,puscest,non-word,Probably word,0.0,,,7766,18,ok,11-04-2019 13:09
506,1.0,504.0,False,Graphic designer,1,lexical,3,sansforgetica,fenis,non-word,Sure word,0.0,,,4323,18,ok,11-04-2019 13:09
507,1.0,504.0,False,Graphic designer,1,lexical,4,sansforgetica,freasional,non-word,Probably non-word,1.0,,,7594,18,ok,11-04-2019 13:09
508,1.0,504.0,False,Graphic designer,1,lexical,5,sansforgetica,country,word,Sure word,1.0,,,2415,18,ok,11-04-2019 13:09
509,1.0,504.0,False,Graphic designer,1,lexical,6,sansforgetica,stronous,non-word,Probably word,0.0,,,3696,18,ok,11-04-2019 13:09
510,1.0,504.0,False,Graphic designer,1,lexical,7,sansforgetica,eurviver,non-word,Probably word,0.0,,,6291,18,ok,11-04-2019 13:09
511,1.0,504.0,False,Graphic designer,1,lexical,8,sansforgetica,tersuact,non-word,Probably non-word,1.0,,,7477,18,ok,11-04-2019 13:09
512,1.0,504.0,False,Graphic designer,1,lexical,9,sansforgetica,rescributed,non-word,Sure non-word,1.0,,,4999,18,ok,11-04-2019 13:09
513,1.0,504.0,False,Graphic designer,1,lexical,10,sansforgetica,described,word,Sure word,1.0,,,1902,18,ok,11-04-2019 13:09
514,1.0,504.0,False,Graphic designer,1,lexical,11,sansforgetica,tonight,word,Sure word,1.0,,,1756,18,ok,11-04-2019 13:09
515,1.0,504.0,False,Graphic designer,1,lexical,12,sansforgetica,solution,word,Sure word,1.0,,,1691,18,ok,11-04-2019 13:09
516,1.0,504.0,False,Graphic designer,1,lexical,13,sansforgetica,terrible,word,Sure word,1.0,,,1624,18,ok,11-04-2019 13:09
517,1.0,504.0,False,Graphic designer,1,lexical,14,sansforgetica,afraid,word,Sure word,1.0,,,1368,18,ok,11-04-2019 13:09
518,1.0,504.0,False,Graphic designer,1,lexical,15,sansforgetica,narrow,word,Sure word,1.0,,,1231,18,ok,11-04-2019 13:09
519,1.0,504.0,False,Graphic designer,1,lexical,16,sansforgetica,relatively,word,Sure word,1.0,,,1010,18,ok,11-04-2019 13:09
520,1.0,504.0,False,Graphic designer,1,lexical,17,sansforgetica,discovered,word,Sure word,1.0,,,1722,18,ok,11-04-2019 13:09
521,1.0,504.0,False,Graphic designer,1,lexical,18,sansforgetica,couster,non-word,Probably non-word,1.0,,,2865,18,ok,11-04-2019 13:09
522,1.0,504.0,False,Graphic designer,1,lexical,19,sansforgetica,nodded,word,Sure word,1.0,,,3019,18,ok,11-04-2019 13:09
523,1.0,504.0,False,Graphic designer,1,lexical,20,sansforgetica,syster,non-word,Probably non-word,1.0,,,4213,18,ok,11-04-2019 13:09
524,1.0,504.0,False,Graphic designer,1,recognition,1,sansforgetica,totally,word,Sure seen,0.0,not seen,tonight,5140,18,ok,11-04-2019 13:09
525,1.0,504.0,False,Graphic designer,1,recognition,2,sansforgetica,stronous,non-word,Sure seen,1.0,seen,stronous,2926,18,ok,11-04-2019 13:09
526,1.0,504.0,False,Graphic designer,1,recognition,3,sansforgetica,evere,non-word,Sure seen,0.0,not seen,eurviver,5638,18,ok,11-04-2019 13:09
527,1.0,504.0,False,Graphic designer,1,recognition,4,sansforgetica,rescributed,non-word,Probably seen,1.0,seen,rescributed,2518,18,ok,11-04-2019 13:09
528,1.0,504.0,False,Graphic designer,1,recognition,5,sansforgetica,littletely,non-word,Probably seen,0.0,not seen,lithin,2591,18,ok,11-04-2019 13:09
529,1.0,504.0,False,Graphic designer,1,recognition,6,sansforgetica,frighboure,non-word,Probably not seen,1.0,not seen,freasional,2066,18,ok,11-04-2019 13:09
530,1.0,504.0,False,Graphic designer,1,recognition,7,sansforgetica,discovered,word,Sure seen,1.0,seen,discovered,2175,18,ok,11-04-2019 13:09
531,1.0,504.0,False,Graphic designer,1,recognition,8,sansforgetica,solution,word,Sure seen,1.0,seen,solution,1189,18,ok,11-04-2019 13:09
532,1.0,504.0,False,Graphic designer,1,recognition,9,sansforgetica,fesituded,non-word,Probably seen,0.0,not seen,fenis,3110,18,ok,11-04-2019 13:09
533,1.0,504.0,False,Graphic designer,1,recognition,10,sansforgetica,puscest,non-word,Sure seen,1.0,seen,puscest,1593,18,ok,11-04-2019 13:09
534,1.0,504.0,False,Graphic designer,1,recognition,11,sansforgetica,nation,word,Sure seen,0.0,not seen,narrow,1583,18,ok,11-04-2019 13:09
535,1.0,504.0,False,Graphic designer,1,recognition,12,sansforgetica,terrible,word,Sure seen,1.0,seen,terrible,1385,18,ok,11-04-2019 13:09
536,1.0,504.0,False,Graphic designer,1,recognition,13,sansforgetica,noise,word,Sure seen,0.0,not seen,nodded,1396,18,ok,11-04-2019 13:09
537,1.0,504.0,False,Graphic designer,1,recognition,14,sansforgetica,couster,non-word,Probably seen,1.0,seen,couster,1884,18,ok,11-04-2019 13:09
538,1.0,504.0,False,Graphic designer,1,recognition,15,sansforgetica,relief,word,Sure seen,0.0,not seen,relatively,1819,18,ok,11-04-2019 13:09
539,1.0,504.0,False,Graphic designer,1,recognition,16,sansforgetica,country,word,Sure seen,1.0,seen,country,1798,18,ok,11-04-2019 13:09
540,1.0,504.0,False,Graphic designer,2,lexical,1,arial,school,word,Sure word,1.0,,,3661,64,very easy to read,11-04-2019 13:09
541,1.0,504.0,False,Graphic designer,2,lexical,2,arial,unione,non-word,Probably non-word,1.0,,,2090,64,very easy to read,11-04-2019 13:09
542,1.0,504.0,False,Graphic designer,2,lexical,3,arial,frafering,non-word,Probably non-word,1.0,,,3435,64,very easy to read,11-04-2019 13:09
543,1.0,504.0,False,Graphic designer,2,lexical,4,arial,finished,word,Sure word,1.0,,,1505,64,very easy to read,11-04-2019 13:09
544,1.0,504.0,False,Graphic designer,2,lexical,5,arial,hunwary,non-word,Probably word,0.0,,,2275,64,very easy to read,11-04-2019 13:09
545,1.0,504.0,False,Graphic designer,2,lexical,6,arial,explained,word,Sure word,1.0,,,1326,64,very easy to read,11-04-2019 13:09
546,1.0,504.0,False,Graphic designer,2,lexical,7,arial,doweract,non-word,Probably word,0.0,,,2831,64,very easy to read,11-04-2019 13:09
547,1.0,504.0,False,Graphic designer,2,lexical,8,arial,dinded,non-word,Probably word,0.0,,,3445,64,very easy to read,11-04-2019 13:09
548,1.0,504.0,False,Graphic designer,2,lexical,9,arial,olded,non-word,Probably non-word,1.0,,,2645,64,very easy to read,11-04-2019 13:09
549,1.0,504.0,False,Graphic designer,2,lexical,10,arial,safety,word,Sure word,1.0,,,1109,64,very easy to read,11-04-2019 13:09
550,1.0,504.0,False,Graphic designer,2,lexical,11,arial,steps,word,Sure word,1.0,,,1264,64,very easy to read,11-04-2019 13:09
551,1.0,504.0,False,Graphic designer,2,lexical,12,arial,tunning,non-word,Probably word,0.0,,,5915,64,very easy to read,11-04-2019 13:09
552,1.0,504.0,False,Graphic designer,2,lexical,13,arial,whose,word,Sure word,1.0,,,1754,64,very easy to read,11-04-2019 13:09
553,1.0,504.0,False,Graphic designer,2,lexical,14,arial,third,word,Sure word,1.0,,,1220,64,very easy to read,11-04-2019 13:09
554,1.0,504.0,False,Graphic designer,2,lexical,15,arial,remangth,non-word,Sure non-word,1.0,,,3276,64,very easy to read,11-04-2019 13:09
555,1.0,504.0,False,Graphic designer,2,lexical,16,arial,books,word,Sure word,1.0,,,1298,64,very easy to read,11-04-2019 13:09
556,1.0,504.0,False,Graphic designer,2,lexical,17,arial,separtly,non-word,Sure non-word,1.0,,,2301,64,very easy to read,11-04-2019 13:09
557,1.0,504.0,False,Graphic designer,2,lexical,18,arial,shall,word,Sure word,1.0,,,1167,64,very easy to read,11-04-2019 13:09
558,1.0,504.0,False,Graphic designer,2,lexical,19,arial,upties,non-word,Probably non-word,1.0,,,3237,64,very easy to read,11-04-2019 13:09
559,1.0,504.0,False,Graphic designer,2,lexical,20,arial,store,word,Sure word,1.0,,,1450,64,very easy to read,11-04-2019 13:09
560,1.0,504.0,False,Graphic designer,2,recognition,1,arial,books,word,Sure seen,1.0,seen,books,2406,64,very easy to read,11-04-2019 13:09
561,1.0,504.0,False,Graphic designer,2,recognition,2,arial,window,word,Sure seen,0.0,not seen,whose,992,64,very easy to read,11-04-2019 13:09
562,1.0,504.0,False,Graphic designer,2,recognition,3,arial,unione,non-word,Sure seen,1.0,seen,unione,2102,64,very easy to read,11-04-2019 13:09
563,1.0,504.0,False,Graphic designer,2,recognition,4,arial,store,word,Sure seen,1.0,seen,store,1132,64,very easy to read,11-04-2019 13:09
564,1.0,504.0,False,Graphic designer,2,recognition,5,arial,drankes,non-word,Sure seen,0.0,not seen,doweract,1457,64,very easy to read,11-04-2019 13:09
565,1.0,504.0,False,Graphic designer,2,recognition,6,arial,frafering,non-word,Sure seen,1.0,seen,frafering,884,64,very easy to read,11-04-2019 13:09
566,1.0,504.0,False,Graphic designer,2,recognition,7,arial,remangth,non-word,Sure seen,1.0,seen,remangth,845,64,very easy to read,11-04-2019 13:09
567,1.0,504.0,False,Graphic designer,2,recognition,8,arial,schools,word,Sure seen,0.0,not seen,school,970,64,very easy to read,11-04-2019 13:09
568,1.0,504.0,False,Graphic designer,2,recognition,9,arial,first,word,Sure seen,0.0,not seen,finished,1631,64,very easy to read,11-04-2019 13:09
569,1.0,504.0,False,Graphic designer,2,recognition,10,arial,turpagance,non-word,Sure seen,0.0,not seen,tunning,1787,64,very easy to read,11-04-2019 13:09
570,1.0,504.0,False,Graphic designer,2,recognition,11,arial,safety,word,Sure seen,1.0,seen,safety,1063,64,very easy to read,11-04-2019 13:09
571,1.0,504.0,False,Graphic designer,2,recognition,12,arial,explained,word,Sure seen,1.0,seen,explained,1020,64,very easy to read,11-04-2019 13:09
572,1.0,504.0,False,Graphic designer,2,recognition,13,arial,hunwary,non-word,Sure seen,1.0,seen,hunwary,2636,64,very easy to read,11-04-2019 13:09
573,1.0,504.0,False,Graphic designer,2,recognition,14,arial,sepernment,non-word,Sure not seen,1.0,not seen,separtly,2027,64,very easy to read,11-04-2019 13:09
574,1.0,504.0,False,Graphic designer,2,recognition,15,arial,shape,word,Sure not seen,1.0,not seen,shall,1680,64,very easy to read,11-04-2019 13:09
575,1.0,504.0,False,Graphic designer,2,recognition,16,arial,opergence,non-word,Sure not seen,1.0,not seen,olded,1202,64,very easy to read,11-04-2019 13:09
576,1.0,576.0,False,Non-designer,1,lexical,1,sansforgetica,succerdly,non-word,Probably non-word,1.0,,,6953,50,ok,11-04-2019 12:28
577,1.0,576.0,False,Non-designer,1,lexical,2,sansforgetica,proved,word,Sure word,1.0,,,4226,50,ok,11-04-2019 12:28
578,1.0,576.0,False,Non-designer,1,lexical,3,sansforgetica,himself,word,Sure word,1.0,,,3383,50,ok,11-04-2019 12:28
579,1.0,576.0,False,Non-designer,1,lexical,4,sansforgetica,slightly,word,Sure word,1.0,,,3891,50,ok,11-04-2019 12:28
580,1.0,576.0,False,Non-designer,1,lexical,5,sansforgetica,dress,word,Sure word,1.0,,,3417,50,ok,11-04-2019 12:28
581,1.0,576.0,False,Non-designer,1,lexical,6,sansforgetica,slanding,non-word,Probably non-word,1.0,,,4881,50,ok,11-04-2019 12:28
582,1.0,576.0,False,Non-designer,1,lexical,7,sansforgetica,certainly,word,Sure word,1.0,,,4047,50,ok,11-04-2019 12:28
583,1.0,576.0,False,Non-designer,1,lexical,8,sansforgetica,throure,non-word,Probably non-word,1.0,,,6021,50,ok,11-04-2019 12:28
584,1.0,576.0,False,Non-designer,1,lexical,9,sansforgetica,curonoms,non-word,Probably non-word,1.0,,,6319,50,ok,11-04-2019 12:28
585,1.0,576.0,False,Non-designer,1,lexical,10,sansforgetica,medical,word,Sure word,1.0,,,3349,50,ok,11-04-2019 12:28
586,1.0,576.0,False,Non-designer,1,lexical,11,sansforgetica,doors,word,Sure word,1.0,,,2724,50,ok,11-04-2019 12:28
587,1.0,576.0,False,Non-designer,1,lexical,12,sansforgetica,lovessions,non-word,Probably non-word,1.0,,,4826,50,ok,11-04-2019 12:28
588,1.0,576.0,False,Non-designer,1,lexical,13,sansforgetica,scale,word,Sure word,1.0,,,2283,50,ok,11-04-2019 12:28
589,1.0,576.0,False,Non-designer,1,lexical,14,sansforgetica,sancerats,non-word,Probably non-word,1.0,,,4456,50,ok,11-04-2019 12:28
590,1.0,576.0,False,Non-designer,1,lexical,15,sansforgetica,memated,non-word,Probably non-word,1.0,,,3189,50,ok,11-04-2019 12:28
591,1.0,576.0,False,Non-designer,1,lexical,16,sansforgetica,terrible,word,Sure word,1.0,,,2070,50,ok,11-04-2019 12:28
592,1.0,576.0,False,Non-designer,1,lexical,17,sansforgetica,campaign,word,Sure word,1.0,,,2960,50,ok,11-04-2019 12:28
593,1.0,576.0,False,Non-designer,1,lexical,18,sansforgetica,concessibly,non-word,Probably non-word,1.0,,,3018,50,ok,11-04-2019 12:28
594,1.0,576.0,False,Non-designer,1,lexical,19,sansforgetica,milevate,non-word,Probably non-word,1.0,,,3068,50,ok,11-04-2019 12:28
595,1.0,576.0,False,Non-designer,1,lexical,20,sansforgetica,conjunteful,non-word,Probably non-word,1.0,,,4685,50,ok,11-04-2019 12:28
596,1.0,576.0,False,Non-designer,1,recognition,1,sansforgetica,campaign,word,Sure seen,1.0,seen,campaign,6933,50,ok,11-04-2019 12:28
597,1.0,576.0,False,Non-designer,1,recognition,2,sansforgetica,proved,word,Sure seen,1.0,seen,proved,2494,50,ok,11-04-2019 12:28
598,1.0,576.0,False,Non-designer,1,recognition,3,sansforgetica,throure,non-word,Probably seen,1.0,seen,throure,4120,50,ok,11-04-2019 12:28
599,1.0,576.0,False,Non-designer,1,recognition,4,sansforgetica,meeting,word,Probably not seen,1.0,not seen,medical,5908,50,ok,11-04-2019 12:28
600,1.0,576.0,False,Non-designer,1,recognition,5,sansforgetica,certainly,word,Sure seen,1.0,seen,certainly,1869,50,ok,11-04-2019 12:28
601,1.0,576.0,False,Non-designer,1,recognition,6,sansforgetica,dressed,word,Probably seen,0.0,not seen,dress,4287,50,ok,11-04-2019 12:28
602,1.0,576.0,False,Non-designer,1,recognition,7,sansforgetica,calate,non-word,Probably not seen,1.0,not seen,curonoms,5422,50,ok,11-04-2019 12:28
603,1.0,576.0,False,Non-designer,1,recognition,8,sansforgetica,slightly,word,Probably seen,1.0,seen,slightly,3067,50,ok,11-04-2019 12:28
604,1.0,576.0,False,Non-designer,1,recognition,9,sansforgetica,millars,non-word,Sure not seen,1.0,not seen,milevate,3516,50,ok,11-04-2019 12:28
605,1.0,576.0,False,Non-designer,1,recognition,10,sansforgetica,conclution,non-word,Probably not seen,1.0,not seen,concessibly,4239,50,ok,11-04-2019 12:28
606,1.0,576.0,False,Non-designer,1,recognition,11,sansforgetica,lovessions,non-word,Sure seen,1.0,seen,lovessions,2568,50,ok,11-04-2019 12:28
607,1.0,576.0,False,Non-designer,1,recognition,12,sansforgetica,history,word,Probably not seen,1.0,not seen,himself,2820,50,ok,11-04-2019 12:28
608,1.0,576.0,False,Non-designer,1,recognition,13,sansforgetica,satched,non-word,Probably not seen,1.0,not seen,sancerats,4959,50,ok,11-04-2019 12:28
609,1.0,576.0,False,Non-designer,1,recognition,14,sansforgetica,conjunteful,non-word,Sure seen,1.0,seen,conjunteful,3511,50,ok,11-04-2019 12:28
610,1.0,576.0,False,Non-designer,1,recognition,15,sansforgetica,slanding,non-word,Sure seen,1.0,seen,slanding,2379,50,ok,11-04-2019 12:28
611,1.0,576.0,False,Non-designer,1,recognition,16,sansforgetica,scene,word,Probably not seen,1.0,not seen,scale,2863,50,ok,11-04-2019 12:28
612,1.0,576.0,False,Non-designer,2,lexical,1,arial,shoulder,word,Sure word,1.0,,,3454,50,very easy to read,11-04-2019 12:28
613,1.0,576.0,False,Non-designer,2,lexical,2,arial,deeply,word,Sure word,1.0,,,1567,50,very easy to read,11-04-2019 12:28
614,1.0,576.0,False,Non-designer,2,lexical,3,arial,married,word,Sure word,1.0,,,1450,50,very easy to read,11-04-2019 12:28
615,1.0,576.0,False,Non-designer,2,lexical,4,arial,miscuity,non-word,Probably non-word,1.0,,,4290,50,very easy to read,11-04-2019 12:28
616,1.0,576.0,False,Non-designer,2,lexical,5,arial,count,word,Sure word,1.0,,,4285,50,very easy to read,11-04-2019 12:28
617,1.0,576.0,False,Non-designer,2,lexical,6,arial,orgument,non-word,Probably non-word,1.0,,,3806,50,very easy to read,11-04-2019 12:28
618,1.0,576.0,False,Non-designer,2,lexical,7,arial,sprikelf,non-word,Probably non-word,1.0,,,3117,50,very easy to read,11-04-2019 12:28
619,1.0,576.0,False,Non-designer,2,lexical,8,arial,villies,non-word,Probably non-word,1.0,,,2483,50,very easy to read,11-04-2019 12:28
620,1.0,576.0,False,Non-designer,2,lexical,9,arial,short,word,Sure word,1.0,,,1816,50,very easy to read,11-04-2019 12:28
621,1.0,576.0,False,Non-designer,2,lexical,10,arial,meant,word,Sure word,1.0,,,1435,50,very easy to read,11-04-2019 12:28
622,1.0,576.0,False,Non-designer,2,lexical,11,arial,acadence,non-word,Probably non-word,1.0,,,3355,50,very easy to read,11-04-2019 12:28
623,1.0,576.0,False,Non-designer,2,lexical,12,arial,especiling,non-word,Probably non-word,1.0,,,2463,50,very easy to read,11-04-2019 12:28
624,1.0,576.0,False,Non-designer,2,lexical,13,arial,cigarette,word,Sure word,1.0,,,2008,50,very easy to read,11-04-2019 12:28
625,1.0,576.0,False,Non-designer,2,lexical,14,arial,alone,word,Sure word,1.0,,,1642,50,very easy to read,11-04-2019 12:28
626,1.0,576.0,False,Non-designer,2,lexical,15,arial,build,word,Sure word,1.0,,,1442,50,very easy to read,11-04-2019 12:28
627,1.0,576.0,False,Non-designer,2,lexical,16,arial,explaign,non-word,Probably non-word,1.0,,,2899,50,very easy to read,11-04-2019 12:28
628,1.0,576.0,False,Non-designer,2,lexical,17,arial,infegatione,non-word,Probably non-word,1.0,,,3281,50,very easy to read,11-04-2019 12:28
629,1.0,576.0,False,Non-designer,2,lexical,18,arial,tommon,non-word,Probably non-word,1.0,,,2455,50,very easy to read,11-04-2019 12:28
630,1.0,576.0,False,Non-designer,2,lexical,19,arial,escape,word,Sure word,1.0,,,1728,50,very easy to read,11-04-2019 12:28
631,1.0,576.0,False,Non-designer,2,lexical,20,arial,goverpream,non-word,Probably non-word,1.0,,,2717,50,very easy to read,11-04-2019 12:28
632,1.0,576.0,False,Non-designer,2,recognition,1,arial,acadence,non-word,Probably seen,1.0,seen,acadence,8538,50,very easy to read,11-04-2019 12:28
633,1.0,576.0,False,Non-designer,2,recognition,2,arial,building,word,Sure seen,0.0,not seen,build,1601,50,very easy to read,11-04-2019 12:28
634,1.0,576.0,False,Non-designer,2,recognition,3,arial,infortition,non-word,Probably not seen,1.0,not seen,infegatione,2405,50,very easy to read,11-04-2019 12:28
635,1.0,576.0,False,Non-designer,2,recognition,4,arial,tommon,non-word,Sure seen,1.0,seen,tommon,1955,50,very easy to read,11-04-2019 12:28
636,1.0,576.0,False,Non-designer,2,recognition,5,arial,means,word,Probably not seen,1.0,not seen,meant,2198,50,very easy to read,11-04-2019 12:28
637,1.0,576.0,False,Non-designer,2,recognition,6,arial,miscuity,non-word,Sure seen,1.0,seen,miscuity,1710,50,very easy to read,11-04-2019 12:28
638,1.0,576.0,False,Non-designer,2,recognition,7,arial,escape,word,Sure seen,1.0,seen,escape,1611,50,very easy to read,11-04-2019 12:28
639,1.0,576.0,False,Non-designer,2,recognition,8,arial,country,word,Sure not seen,1.0,not seen,count,4480,50,very easy to read,11-04-2019 12:28
640,1.0,576.0,False,Non-designer,2,recognition,9,arial,shoulder,word,Sure seen,1.0,seen,shoulder,1912,50,very easy to read,11-04-2019 12:28
641,1.0,576.0,False,Non-designer,2,recognition,10,arial,short,word,Sure seen,1.0,seen,short,1570,50,very easy to read,11-04-2019 12:28
642,1.0,576.0,False,Non-designer,2,recognition,11,arial,cities,word,Sure not seen,1.0,not seen,cigarette,2108,50,very easy to read,11-04-2019 12:28
643,1.0,576.0,False,Non-designer,2,recognition,12,arial,espernence,non-word,Probably seen,0.0,not seen,especiling,3341,50,very easy to read,11-04-2019 12:28
644,1.0,576.0,False,Non-designer,2,recognition,13,arial,explaign,non-word,Sure seen,1.0,seen,explaign,2127,50,very easy to read,11-04-2019 12:28
645,1.0,576.0,False,Non-designer,2,recognition,14,arial,gradboate,non-word,Sure not seen,1.0,not seen,goverpream,4562,50,very easy to read,11-04-2019 12:28
646,1.0,576.0,False,Non-designer,2,recognition,15,arial,orienuation,non-word,Probably not seen,1.0,not seen,orgument,6929,50,very easy to read,11-04-2019 12:28
647,1.0,576.0,False,Non-designer,2,recognition,16,arial,married,word,Sure seen,1.0,seen,married,1752,50,very easy to read,11-04-2019 12:28
648,1.0,648.0,False,Graphic designer,1,lexical,1,arial,parts,word,Sure word,1.0,,,1592,68,very easy to read,11-04-2019 12:12
649,1.0,648.0,False,Graphic designer,1,lexical,2,arial,beauty,word,Sure word,1.0,,,1747,68,very easy to read,11-04-2019 12:12
650,1.0,648.0,False,Graphic designer,1,lexical,3,arial,natheracing,non-word,Probably non-word,1.0,,,3238,68,very easy to read,11-04-2019 12:12
651,1.0,648.0,False,Graphic designer,1,lexical,4,arial,exist,word,Sure word,1.0,,,1792,68,very easy to read,11-04-2019 12:12
652,1.0,648.0,False,Graphic designer,1,lexical,5,arial,hopulatute,non-word,Probably non-word,1.0,,,2927,68,very easy to read,11-04-2019 12:12
653,1.0,648.0,False,Graphic designer,1,lexical,6,arial,midonious,non-word,Probably non-word,1.0,,,4249,68,very easy to read,11-04-2019 12:12
654,1.0,648.0,False,Graphic designer,1,lexical,7,arial,outting,non-word,Sure non-word,1.0,,,3569,68,very easy to read,11-04-2019 12:12
655,1.0,648.0,False,Graphic designer,1,lexical,8,arial,argument,word,Sure word,1.0,,,3169,68,very easy to read,11-04-2019 12:12
656,1.0,648.0,False,Graphic designer,1,lexical,9,arial,companies,word,Sure word,1.0,,,1558,68,very easy to read,11-04-2019 12:12
657,1.0,648.0,False,Graphic designer,1,lexical,10,arial,reaptality,non-word,Sure non-word,1.0,,,3279,68,very easy to read,11-04-2019 12:12
658,1.0,648.0,False,Graphic designer,1,lexical,11,arial,according,word,Sure word,1.0,,,2135,68,very easy to read,11-04-2019 12:12
659,1.0,648.0,False,Graphic designer,1,lexical,12,arial,pericer,non-word,Probably non-word,1.0,,,3690,68,very easy to read,11-04-2019 12:12
660,1.0,648.0,False,Graphic designer,1,lexical,13,arial,sungs,non-word,Probably non-word,1.0,,,2055,68,very easy to read,11-04-2019 12:12
661,1.0,648.0,False,Graphic designer,1,lexical,14,arial,interesting,word,Sure word,1.0,,,1648,68,very easy to read,11-04-2019 12:12
662,1.0,648.0,False,Graphic designer,1,lexical,15,arial,dangerous,word,Sure word,1.0,,,1240,68,very easy to read,11-04-2019 12:12
663,1.0,648.0,False,Graphic designer,1,lexical,16,arial,argued,word,Sure word,1.0,,,1225,68,very easy to read,11-04-2019 12:12
664,1.0,648.0,False,Graphic designer,1,lexical,17,arial,windom,non-word,Probably non-word,1.0,,,2807,68,very easy to read,11-04-2019 12:12
665,1.0,648.0,False,Graphic designer,1,lexical,18,arial,closer,word,Sure word,1.0,,,1384,68,very easy to read,11-04-2019 12:12
666,1.0,648.0,False,Graphic designer,1,lexical,19,arial,althdren,non-word,Probably non-word,1.0,,,3425,68,very easy to read,11-04-2019 12:12
667,1.0,648.0,False,Graphic designer,1,lexical,20,arial,folitties,non-word,Probably non-word,1.0,,,2392,68,very easy to read,11-04-2019 12:12
668,1.0,648.0,False,Graphic designer,1,recognition,1,arial,around,word,Probably seen,0.0,not seen,argument,6591,68,very easy to read,11-04-2019 12:12
669,1.0,648.0,False,Graphic designer,1,recognition,2,arial,closer,word,Sure seen,1.0,seen,closer,4384,68,very easy to read,11-04-2019 12:12
670,1.0,648.0,False,Graphic designer,1,recognition,3,arial,milently,non-word,Sure not seen,1.0,not seen,midonious,3504,68,very easy to read,11-04-2019 12:12
671,1.0,648.0,False,Graphic designer,1,recognition,4,arial,natimate,non-word,Probably seen,0.0,not seen,natheracing,3617,68,very easy to read,11-04-2019 12:12
672,1.0,648.0,False,Graphic designer,1,recognition,5,arial,pericer,non-word,Sure seen,1.0,seen,pericer,2481,68,very easy to read,11-04-2019 12:12
673,1.0,648.0,False,Graphic designer,1,recognition,6,arial,reart,non-word,Probably not seen,1.0,not seen,reaptality,3286,68,very easy to read,11-04-2019 12:12
674,1.0,648.0,False,Graphic designer,1,recognition,7,arial,outting,non-word,Sure seen,1.0,seen,outting,2416,68,very easy to read,11-04-2019 12:12
675,1.0,648.0,False,Graphic designer,1,recognition,8,arial,argued,word,Sure seen,1.0,seen,argued,1288,68,very easy to read,11-04-2019 12:12
676,1.0,648.0,False,Graphic designer,1,recognition,9,arial,horeations,non-word,Sure not seen,1.0,not seen,hopulatute,3128,68,very easy to read,11-04-2019 12:12
677,1.0,648.0,False,Graphic designer,1,recognition,10,arial,folitties,non-word,Sure seen,1.0,seen,folitties,2025,68,very easy to read,11-04-2019 12:12
678,1.0,648.0,False,Graphic designer,1,recognition,11,arial,dangerous,word,Sure seen,1.0,seen,dangerous,1406,68,very easy to read,11-04-2019 12:12
679,1.0,648.0,False,Graphic designer,1,recognition,12,arial,became,word,Probably not seen,1.0,not seen,beauty,2448,68,very easy to read,11-04-2019 12:12
680,1.0,648.0,False,Graphic designer,1,recognition,13,arial,according,word,Sure seen,1.0,seen,according,1465,68,very easy to read,11-04-2019 12:12
681,1.0,648.0,False,Graphic designer,1,recognition,14,arial,althdren,non-word,Sure seen,1.0,seen,althdren,1624,68,very easy to read,11-04-2019 12:12
682,1.0,648.0,False,Graphic designer,1,recognition,15,arial,passing,word,Probably seen,0.0,not seen,parts,4368,68,very easy to read,11-04-2019 12:12
683,1.0,648.0,False,Graphic designer,1,recognition,16,arial,introduced,word,Sure seen,0.0,not seen,interesting,3288,68,very easy to read,11-04-2019 12:12
684,1.0,648.0,False,Graphic designer,2,lexical,1,sansforgetica,flueement,non-word,Probably non-word,1.0,,,4784,70,ok,11-04-2019 12:12
685,1.0,648.0,False,Graphic designer,2,lexical,2,sansforgetica,considered,word,Sure word,1.0,,,1640,70,ok,11-04-2019 12:12
686,1.0,648.0,False,Graphic designer,2,lexical,3,sansforgetica,thousands,word,Sure word,1.0,,,1423,70,ok,11-04-2019 12:12
687,1.0,648.0,False,Graphic designer,2,lexical,4,sansforgetica,production,word,Sure word,1.0,,,1393,70,ok,11-04-2019 12:12
688,1.0,648.0,False,Graphic designer,2,lexical,5,sansforgetica,prosequents,non-word,Probably non-word,1.0,,,2451,70,ok,11-04-2019 12:12
689,1.0,648.0,False,Graphic designer,2,lexical,6,sansforgetica,dearn,non-word,Probably non-word,1.0,,,3300,70,ok,11-04-2019 12:12
690,1.0,648.0,False,Graphic designer,2,lexical,7,sansforgetica,sector,word,Sure word,1.0,,,1457,70,ok,11-04-2019 12:12
691,1.0,648.0,False,Graphic designer,2,lexical,8,sansforgetica,espeatives,non-word,Probably non-word,1.0,,,5016,70,ok,11-04-2019 12:12
692,1.0,648.0,False,Graphic designer,2,lexical,9,sansforgetica,tired,word,Sure word,1.0,,,1384,70,ok,11-04-2019 12:12
693,1.0,648.0,False,Graphic designer,2,lexical,10,sansforgetica,service,word,Sure word,1.0,,,1312,70,ok,11-04-2019 12:12
694,1.0,648.0,False,Graphic designer,2,lexical,11,sansforgetica,together,word,Sure word,1.0,,,1144,70,ok,11-04-2019 12:12
695,1.0,648.0,False,Graphic designer,2,lexical,12,sansforgetica,desire,word,Sure word,1.0,,,1023,70,ok,11-04-2019 12:12
696,1.0,648.0,False,Graphic designer,2,lexical,13,sansforgetica,untin,non-word,Probably non-word,1.0,,,2392,70,ok,11-04-2019 12:12
697,1.0,648.0,False,Graphic designer,2,lexical,14,sansforgetica,exectorial,non-word,Probably non-word,1.0,,,2984,70,ok,11-04-2019 12:12
698,1.0,648.0,False,Graphic designer,2,lexical,15,sansforgetica,persondants,non-word,Probably non-word,1.0,,,2649,70,ok,11-04-2019 12:12
699,1.0,648.0,False,Graphic designer,2,lexical,16,sansforgetica,peoped,non-word,Probably non-word,1.0,,,3631,70,ok,11-04-2019 12:12
700,1.0,648.0,False,Graphic designer,2,lexical,17,sansforgetica,girayed,non-word,Probably non-word,1.0,,,1592,70,ok,11-04-2019 12:12
701,1.0,648.0,False,Graphic designer,2,lexical,18,sansforgetica,shannishes,non-word,Probably non-word,1.0,,,3818,70,ok,11-04-2019 12:12
702,1.0,648.0,False,Graphic designer,2,lexical,19,sansforgetica,series,word,Sure word,1.0,,,1958,70,ok,11-04-2019 12:12
703,1.0,648.0,False,Graphic designer,2,lexical,20,sansforgetica,formed,word,Sure word,1.0,,,1160,70,ok,11-04-2019 12:12
704,1.0,648.0,False,Graphic designer,2,recognition,1,sansforgetica,contact,word,Probably not seen,1.0,not seen,considered,4930,70,ok,11-04-2019 12:12
705,1.0,648.0,False,Graphic designer,2,recognition,2,sansforgetica,production,word,Sure seen,1.0,seen,production,2549,70,ok,11-04-2019 12:12
706,1.0,648.0,False,Graphic designer,2,recognition,3,sansforgetica,unwiliate,non-word,Sure not seen,1.0,not seen,untin,2986,70,ok,11-04-2019 12:12
707,1.0,648.0,False,Graphic designer,2,recognition,4,sansforgetica,setting,word,Probably seen,0.0,not seen,service,1718,70,ok,11-04-2019 12:12
708,1.0,648.0,False,Graphic designer,2,recognition,5,sansforgetica,tired,word,Sure seen,1.0,seen,tired,1290,70,ok,11-04-2019 12:12
709,1.0,648.0,False,Graphic designer,2,recognition,6,sansforgetica,dearn,non-word,Sure seen,1.0,seen,dearn,1406,70,ok,11-04-2019 12:12
710,1.0,648.0,False,Graphic designer,2,recognition,7,sansforgetica,seriously,word,Sure seen,0.0,not seen,series,1160,70,ok,11-04-2019 12:12
711,1.0,648.0,False,Graphic designer,2,recognition,8,sansforgetica,shass,non-word,Sure not seen,1.0,not seen,shannishes,2681,70,ok,11-04-2019 12:12
712,1.0,648.0,False,Graphic designer,2,recognition,9,sansforgetica,persondants,non-word,Sure seen,1.0,seen,persondants,2008,70,ok,11-04-2019 12:12
713,1.0,648.0,False,Graphic designer,2,recognition,10,sansforgetica,espeatives,non-word,Sure seen,1.0,seen,espeatives,2129,70,ok,11-04-2019 12:12
714,1.0,648.0,False,Graphic designer,2,recognition,11,sansforgetica,thousands,word,Sure seen,1.0,seen,thousands,1174,70,ok,11-04-2019 12:12
715,1.0,648.0,False,Graphic designer,2,recognition,12,sansforgetica,former,word,Probably not seen,1.0,not seen,formed,3088,70,ok,11-04-2019 12:12
716,1.0,648.0,False,Graphic designer,2,recognition,13,sansforgetica,girst,non-word,Sure not seen,1.0,not seen,girayed,2145,70,ok,11-04-2019 12:12
717,1.0,648.0,False,Graphic designer,2,recognition,14,sansforgetica,foilly,non-word,Sure not seen,1.0,not seen,flueement,1415,70,ok,11-04-2019 12:12
718,1.0,648.0,False,Graphic designer,2,recognition,15,sansforgetica,desire,word,Sure seen,1.0,seen,desire,1265,70,ok,11-04-2019 12:12
719,1.0,648.0,False,Graphic designer,2,recognition,16,sansforgetica,exectorial,non-word,Sure seen,1.0,seen,exectorial,1312,70,ok,11-04-2019 12:12
720,1.0,720.0,False,Non-designer,1,lexical,1,arial,together,word,Sure word,1.0,,,2128,92,very easy to read,11-04-2019 08:33
721,1.0,720.0,False,Non-designer,1,lexical,2,arial,contact,word,Sure word,1.0,,,1871,92,very easy to read,11-04-2019 08:33
722,1.0,720.0,False,Non-designer,1,lexical,3,arial,minned,non-word,Probably non-word,1.0,,,2760,92,very easy to read,11-04-2019 08:33
723,1.0,720.0,False,Non-designer,1,lexical,4,arial,painting,word,Sure word,1.0,,,2350,92,very easy to read,11-04-2019 08:33
724,1.0,720.0,False,Non-designer,1,lexical,5,arial,lunnest,non-word,Probably non-word,1.0,,,2803,92,very easy to read,11-04-2019 08:33
725,1.0,720.0,False,Non-designer,1,lexical,6,arial,thiles,non-word,Probably non-word,1.0,,,3556,92,very easy to read,11-04-2019 08:33
726,1.0,720.0,False,Non-designer,1,lexical,7,arial,brisis,non-word,Probably non-word,1.0,,,5041,92,very easy to read,11-04-2019 08:33
727,1.0,720.0,False,Non-designer,1,lexical,8,arial,older,word,Sure word,1.0,,,2270,92,very easy to read,11-04-2019 08:33
728,1.0,720.0,False,Non-designer,1,lexical,9,arial,spread,word,Sure word,1.0,,,4089,92,very easy to read,11-04-2019 08:33
729,1.0,720.0,False,Non-designer,1,lexical,10,arial,managed,word,Sure word,1.0,,,1697,92,very easy to read,11-04-2019 08:33
730,1.0,720.0,False,Non-designer,1,lexical,11,arial,narnisite,non-word,Probably non-word,1.0,,,4788,92,very easy to read,11-04-2019 08:33
731,1.0,720.0,False,Non-designer,1,lexical,12,arial,organized,word,Sure word,1.0,,,2055,92,very easy to read,11-04-2019 08:33
732,1.0,720.0,False,Non-designer,1,lexical,13,arial,mocietary,non-word,Probably non-word,1.0,,,3333,92,very easy to read,11-04-2019 08:33
733,1.0,720.0,False,Non-designer,1,lexical,14,arial,convence,non-word,Probably non-word,1.0,,,8581,92,very easy to read,11-04-2019 08:33
734,1.0,720.0,False,Non-designer,1,lexical,15,arial,exectorial,non-word,Probably word,0.0,,,6800,92,very easy to read,11-04-2019 08:33
735,1.0,720.0,False,Non-designer,1,lexical,16,arial,lodieves,non-word,Probably non-word,1.0,,,2559,92,very easy to read,11-04-2019 08:33
736,1.0,720.0,False,Non-designer,1,lexical,17,arial,store,word,Sure word,1.0,,,1824,92,very easy to read,11-04-2019 08:33
737,1.0,720.0,False,Non-designer,1,lexical,18,arial,normal,word,Sure word,1.0,,,2374,92,very easy to read,11-04-2019 08:33
738,1.0,720.0,False,Non-designer,1,lexical,19,arial,opening,word,Sure word,1.0,,,1820,92,very easy to read,11-04-2019 08:33
739,1.0,720.0,False,Non-designer,1,lexical,20,arial,drankes,non-word,Probably non-word,1.0,,,2820,92,very easy to read,11-04-2019 08:33
