,ParticipantID,Type,TestID,TrialID,StudyID,Fluent,Training,Font,Sample,Category,Response,Correct,Seen,Foil,RT,RTnorm,JoM,JoL,Date
0,0,lexical,1,1,2,True,Non-designer,arial,experaties,non-word,Probably non-word,1.0,,,2267.0,7.726212650507529,70,easy to read,30-05-2019 14:46
1,0,lexical,1,2,2,True,Non-designer,arial,anyway,word,Sure word,1.0,,,1515.0,7.323170717943469,70,easy to read,30-05-2019 14:46
2,0,lexical,1,3,2,True,Non-designer,arial,glasses,word,Sure word,1.0,,,1038.0,6.945051063725834,70,easy to read,30-05-2019 14:46
3,0,lexical,1,4,2,True,Non-designer,arial,formal,word,Sure word,1.0,,,922.0,6.826545223556594,70,easy to read,30-05-2019 14:46
4,0,lexical,1,5,2,True,Non-designer,arial,suronder,non-word,Sure non-word,1.0,,,2248.0,7.717796211013582,70,easy to read,30-05-2019 14:46
5,0,lexical,1,6,2,True,Non-designer,arial,impeady,non-word,Probably non-word,1.0,,,1649.0,7.407924322559599,70,easy to read,30-05-2019 14:46
6,0,lexical,1,7,2,True,Non-designer,arial,natume,non-word,Probably non-word,1.0,,,2020.0,7.61085279039525,70,easy to read,30-05-2019 14:46
7,0,lexical,1,8,2,True,Non-designer,arial,succerdly,non-word,Sure non-word,1.0,,,1531.0,7.333676395657684,70,easy to read,30-05-2019 14:46
8,0,lexical,1,9,2,True,Non-designer,arial,romoting,non-word,Probably word,0.0,,,3768.0,8.234299635696253,70,easy to read,30-05-2019 14:46
9,0,lexical,1,10,2,True,Non-designer,arial,misher,non-word,Probably non-word,1.0,,,1846.0,7.520776415062798,70,easy to read,30-05-2019 14:46
10,0,lexical,1,11,2,True,Non-designer,arial,white,word,Sure word,1.0,,,1402.0,7.245655067594535,70,easy to read,30-05-2019 14:46
11,0,lexical,1,12,2,True,Non-designer,arial,pearmas,non-word,Sure non-word,1.0,,,2748.0,7.91862865334224,70,easy to read,30-05-2019 14:46
12,0,lexical,1,13,2,True,Non-designer,arial,origived,non-word,Probably non-word,1.0,,,3022.0,8.013674142832683,70,easy to read,30-05-2019 14:46
13,0,lexical,1,14,2,True,Non-designer,arial,coupid,non-word,Probably non-word,1.0,,,2120.0,7.659171367666057,70,easy to read,30-05-2019 14:46
14,0,lexical,1,15,2,True,Non-designer,arial,drive,word,Sure word,1.0,,,1430.0,7.265429723253952,70,easy to read,30-05-2019 14:46
15,0,lexical,1,16,2,True,Non-designer,arial,modern,word,Sure word,1.0,,,976.0,6.883462586413093,70,easy to read,30-05-2019 14:46
16,0,lexical,1,17,2,True,Non-designer,arial,given,word,Sure word,1.0,,,1052.0,6.958448393297656,70,easy to read,30-05-2019 14:46
17,0,lexical,1,18,2,True,Non-designer,arial,activities,word,Sure word,1.0,,,943.0,6.849066282633458,70,easy to read,30-05-2019 14:46
18,0,lexical,1,19,2,True,Non-designer,arial,looks,word,Sure word,1.0,,,951.0,6.85751406254539,70,easy to read,30-05-2019 14:46
19,0,lexical,1,20,2,True,Non-designer,arial,build,word,Sure word,1.0,,,860.0,6.756932389247552,70,easy to read,30-05-2019 14:46
20,0,recognition,1,1,2,True,Non-designer,sansforgetica,succerdly,non-word,Sure seen,1.0,seen,succerdly,2036.6875,7.619079992577784,70,easy to read,30-05-2019 14:46
21,0,recognition,1,2,2,True,Non-designer,sansforgetica,penerer,non-word,Sure not seen,1.0,not seen,pearmas,3272.0,8.093156697722637,70,easy to read,30-05-2019 14:46
22,0,recognition,1,3,2,True,Non-designer,sansforgetica,glasses,word,Sure seen,1.0,seen,glasses,1507.0,7.317876198626496,70,easy to read,30-05-2019 14:46
23,0,recognition,1,4,2,True,Non-designer,sansforgetica,neacten,non-word,Probably not seen,1.0,not seen,natume,2291.0,7.736743682453495,70,easy to read,30-05-2019 14:46
24,0,recognition,1,5,2,True,Non-designer,sansforgetica,gives,word,Sure not seen,1.0,not seen,given,4148.0,8.330381569349418,70,easy to read,30-05-2019 14:46
25,0,recognition,1,6,2,True,Non-designer,sansforgetica,build,word,Sure seen,1.0,seen,build,1424.0,7.26122509197192,70,easy to read,30-05-2019 14:46
26,0,recognition,1,7,2,True,Non-designer,sansforgetica,looks,word,Sure seen,1.0,seen,looks,1243.0,7.125283091510712,70,easy to read,30-05-2019 14:46
27,0,recognition,1,8,2,True,Non-designer,sansforgetica,orindary,non-word,Sure not seen,1.0,not seen,origived,2693.0,7.898411092811599,70,easy to read,30-05-2019 14:46
28,0,recognition,1,9,2,True,Non-designer,sansforgetica,experession,non-word,Probably not seen,1.0,not seen,experaties,1710.0,7.444248649496705,70,easy to read,30-05-2019 14:46
29,0,recognition,1,10,2,True,Non-designer,sansforgetica,driving,word,Probably not seen,1.0,not seen,drive,1742.0,7.4627891574124465,70,easy to read,30-05-2019 14:46
30,0,recognition,1,11,2,True,Non-designer,sansforgetica,romoting,non-word,Probably seen,1.0,seen,romoting,2815.0,7.942717540573791,70,easy to read,30-05-2019 14:46
31,0,recognition,1,12,2,True,Non-designer,sansforgetica,anywhere,word,Sure not seen,1.0,not seen,anyway,2190.0,7.691656822810548,70,easy to read,30-05-2019 14:46
32,0,recognition,1,13,2,True,Non-designer,sansforgetica,suronder,non-word,Sure seen,1.0,seen,suronder,1786.0,7.487733761436443,70,easy to read,30-05-2019 14:46
33,0,recognition,1,14,2,True,Non-designer,sansforgetica,formal,word,Sure seen,1.0,seen,formal,1270.0,7.146772179452637,70,easy to read,30-05-2019 14:46
34,0,recognition,1,15,2,True,Non-designer,sansforgetica,coupid,non-word,Sure seen,1.0,seen,coupid,1306.0,7.1747243098363755,70,easy to read,30-05-2019 14:46
35,0,recognition,1,16,2,True,Non-designer,sansforgetica,moment,word,Probably not seen,1.0,not seen,modern,1991.0,7.596392304064197,70,easy to read,30-05-2019 14:46
36,0,lexical,2,1,2,True,Non-designer,sansforgetica,calculgical,non-word,Probably non-word,1.0,,,2082.125,7.641144285797272,55,difficult to read,30-05-2019 14:46
37,0,lexical,2,2,2,True,Non-designer,sansforgetica,computer,word,Sure word,1.0,,,1345.0,7.2041492920359405,55,difficult to read,30-05-2019 14:46
38,0,lexical,2,3,2,True,Non-designer,sansforgetica,government,word,Sure word,1.0,,,1602.0,7.379008127628304,55,difficult to read,30-05-2019 14:46
39,0,lexical,2,4,2,True,Non-designer,sansforgetica,character,word,Sure word,1.0,,,1872.0,7.534762657037537,55,difficult to read,30-05-2019 14:46
40,0,lexical,2,5,2,True,Non-designer,sansforgetica,pariods,non-word,Probably non-word,1.0,,,2548.0,7.843064016692054,55,difficult to read,30-05-2019 14:46
41,0,lexical,2,6,2,True,Non-designer,sansforgetica,foldness,non-word,Probably non-word,1.0,,,1832.0,7.513163545234076,55,difficult to read,30-05-2019 14:46
42,0,lexical,2,7,2,True,Non-designer,sansforgetica,discussed,word,Sure word,1.0,,,1980.0,7.590852123688581,55,difficult to read,30-05-2019 14:46
43,0,lexical,2,8,2,True,Non-designer,sansforgetica,prohialized,non-word,Probably non-word,1.0,,,4270.0,8.35936910622267,55,difficult to read,30-05-2019 14:46
44,0,lexical,2,9,2,True,Non-designer,sansforgetica,murder,word,Sure word,1.0,,,1518.0,7.325148957955575,55,difficult to read,30-05-2019 14:46
45,0,lexical,2,10,2,True,Non-designer,sansforgetica,thank,word,Sure word,1.0,,,1128.0,7.0282014320580055,55,difficult to read,30-05-2019 14:46
46,0,lexical,2,11,2,True,Non-designer,sansforgetica,mesters,non-word,Probably word,0.0,,,4294.0,8.364973978438726,55,difficult to read,30-05-2019 14:46
47,0,lexical,2,12,2,True,Non-designer,sansforgetica,inderected,non-word,Probably non-word,1.0,,,3615.0,8.192847134592865,55,difficult to read,30-05-2019 14:46
48,0,lexical,2,13,2,True,Non-designer,sansforgetica,freedom,word,Sure word,1.0,,,1632.0,7.397561535524052,55,difficult to read,30-05-2019 14:46
49,0,lexical,2,14,2,True,Non-designer,sansforgetica,talked,word,Sure word,1.0,,,890.0,6.7912214627261855,55,difficult to read,30-05-2019 14:46
50,0,lexical,2,15,2,True,Non-designer,sansforgetica,straight,word,Sure word,1.0,,,1841.0,7.518064181233077,55,difficult to read,30-05-2019 14:46
51,0,lexical,2,16,2,True,Non-designer,sansforgetica,walked,word,Sure word,1.0,,,1571.0,7.359467638255621,55,difficult to read,30-05-2019 14:46
52,0,lexical,2,17,2,True,Non-designer,sansforgetica,vally,non-word,Probably non-word,1.0,,,2391.0,7.779466967458324,55,difficult to read,30-05-2019 14:46
53,0,lexical,2,18,2,True,Non-designer,sansforgetica,verving,non-word,Probably word,0.0,,,2020.0,7.61085279039525,55,difficult to read,30-05-2019 14:46
54,0,lexical,2,19,2,True,Non-designer,sansforgetica,litached,non-word,Sure non-word,1.0,,,3915.0,8.272570608424902,55,difficult to read,30-05-2019 14:46
55,0,lexical,2,20,2,True,Non-designer,sansforgetica,motter,non-word,Probably non-word,1.0,,,3784.0,8.238536930171769,55,difficult to read,30-05-2019 14:46
56,0,recognition,2,1,2,True,Non-designer,arial,calculgical,non-word,Probably seen,1.0,seen,calculgical,3544.0,8.173011311724972,55,difficult to read,30-05-2019 14:46
57,0,recognition,2,2,2,True,Non-designer,arial,victurs,non-word,Sure not seen,1.0,not seen,verving,3073.0,8.030409562130485,55,difficult to read,30-05-2019 14:46
58,0,recognition,2,3,2,True,Non-designer,arial,pariods,non-word,Sure seen,1.0,seen,pariods,1715.0,7.44716835960004,55,difficult to read,30-05-2019 14:46
59,0,recognition,2,4,2,True,Non-designer,arial,liternment,non-word,Probably seen,0.0,not seen,litached,1888.0,7.543273346705446,55,difficult to read,30-05-2019 14:46
60,0,recognition,2,5,2,True,Non-designer,arial,straight,word,Sure seen,1.0,seen,straight,1557.0,7.350516171833997,55,difficult to read,30-05-2019 14:46
61,0,recognition,2,6,2,True,Non-designer,arial,vally,non-word,Sure seen,1.0,seen,vally,1222.0,7.108244139731541,55,difficult to read,30-05-2019 14:46
62,0,recognition,2,7,2,True,Non-designer,arial,discussed,word,Sure seen,1.0,seen,discussed,929.0,6.834108738813838,55,difficult to read,30-05-2019 14:46
63,0,recognition,2,8,2,True,Non-designer,arial,freedom,word,Sure seen,1.0,seen,freedom,904.0,6.806829360392176,55,difficult to read,30-05-2019 14:46
64,0,recognition,2,9,2,True,Non-designer,arial,taste,word,Sure not seen,1.0,not seen,talked,1702.0,7.43955930913332,55,difficult to read,30-05-2019 14:46
65,0,recognition,2,10,2,True,Non-designer,arial,theatre,word,Sure not seen,1.0,not seen,thank,945.0,6.851184927493743,55,difficult to read,30-05-2019 14:46
66,0,recognition,2,11,2,True,Non-designer,arial,metween,non-word,Probably not seen,1.0,not seen,mesters,2229.0,7.709308333385869,55,difficult to read,30-05-2019 14:46
67,0,recognition,2,12,2,True,Non-designer,arial,promatic,non-word,Probably seen,0.0,not seen,prohialized,2816.0,7.943072717277932,55,difficult to read,30-05-2019 14:46
68,0,recognition,2,13,2,True,Non-designer,arial,gradually,word,Probably not seen,1.0,not seen,government,2560.0,7.847762537473607,55,difficult to read,30-05-2019 14:46
69,0,recognition,2,14,2,True,Non-designer,arial,murder,word,Sure seen,1.0,seen,murder,1200.0,7.090076835776093,55,difficult to read,30-05-2019 14:46
70,0,recognition,2,15,2,True,Non-designer,arial,foldness,non-word,Sure seen,1.0,seen,foldness,1284.0,7.1577354842499075,55,difficult to read,30-05-2019 14:46
71,0,recognition,2,16,2,True,Non-designer,arial,concern,word,Probably seen,0.0,not seen,computer,1718.0,7.4489161025442,55,difficult to read,30-05-2019 14:46
72,1,lexical,1,1,2,True,Letter designer,arial,considere,non-word,Probably non-word,1.0,,,3116.5,8.044465856248905,80,very easy to read,30-05-2019 13:02
73,1,lexical,1,2,2,True,Letter designer,arial,today,word,Sure word,1.0,,,1975.0,7.5883236773352225,80,very easy to read,30-05-2019 13:02
74,1,lexical,1,3,2,True,Letter designer,arial,minglem,non-word,Probably word,0.0,,,4672.0,8.449342524508063,80,very easy to read,30-05-2019 13:02
75,1,lexical,1,4,2,True,Letter designer,arial,blace,non-word,Probably word,0.0,,,2533.0,7.8371596500016745,80,very easy to read,30-05-2019 13:02
76,1,lexical,1,5,2,True,Letter designer,arial,anyone,word,Sure word,1.0,,,1931.0,7.565793282428515,80,very easy to read,30-05-2019 13:02
77,1,lexical,1,6,2,True,Letter designer,arial,wesisty,non-word,Probably word,0.0,,,3044.0,8.020927718981577,80,very easy to read,30-05-2019 13:02
78,1,lexical,1,7,2,True,Letter designer,arial,exisonent,non-word,Sure non-word,1.0,,,2429.0,7.795234929002173,80,very easy to read,30-05-2019 13:02
79,1,lexical,1,8,2,True,Letter designer,arial,hoped,word,Sure word,1.0,,,2819.0,7.944137491114112,80,very easy to read,30-05-2019 13:02
80,1,lexical,1,9,2,True,Letter designer,arial,papers,word,Sure word,1.0,,,1421.0,7.2591161280971015,80,very easy to read,30-05-2019 13:02
81,1,lexical,1,10,2,True,Letter designer,arial,morking,non-word,Probably non-word,1.0,,,2604.0,7.8648040033284605,80,very easy to read,30-05-2019 13:02
82,1,lexical,1,11,2,True,Letter designer,arial,british,word,Sure word,1.0,,,1735.0,7.45876269238096,80,very easy to read,30-05-2019 13:02
83,1,lexical,1,12,2,True,Letter designer,arial,order,word,Sure word,1.0,,,1602.0,7.379008127628304,80,very easy to read,30-05-2019 13:02
84,1,lexical,1,13,2,True,Letter designer,arial,achieved,word,Sure word,1.0,,,1534.0,7.335633981927201,80,very easy to read,30-05-2019 13:02
85,1,lexical,1,14,2,True,Letter designer,arial,heaticipary,non-word,Probably word,0.0,,,4357.0,8.379539026117444,80,very easy to read,30-05-2019 13:02
86,1,lexical,1,15,2,True,Letter designer,arial,carrying,word,Sure word,1.0,,,1904.0,7.551712215351309,80,very easy to read,30-05-2019 13:02
87,1,lexical,1,16,2,True,Letter designer,arial,hopeasis,non-word,Probably non-word,1.0,,,2274.0,7.729295674310483,80,very easy to read,30-05-2019 13:02
88,1,lexical,1,17,2,True,Letter designer,arial,arrinst,non-word,Sure non-word,1.0,,,4687.0,8.452547997922705,80,very easy to read,30-05-2019 13:02
89,1,lexical,1,18,2,True,Letter designer,arial,leaves,word,Sure word,1.0,,,2078.0,7.639161171659173,80,very easy to read,30-05-2019 13:02
90,1,lexical,1,19,2,True,Letter designer,arial,exampses,non-word,Probably non-word,1.0,,,3545.0,8.173293438966228,80,very easy to read,30-05-2019 13:02
91,1,lexical,1,20,2,True,Letter designer,arial,explained,word,Sure word,1.0,,,1462.0,7.2875606403097235,80,very easy to read,30-05-2019 13:02
92,1,recognition,1,1,2,True,Letter designer,sansforgetica,cases,word,Probably seen,0.0,not seen,carrying,2349.03125,7.76175828810384,80,very easy to read,30-05-2019 13:02
93,1,recognition,1,2,2,True,Letter designer,sansforgetica,heaticipary,non-word,Sure seen,1.0,seen,heaticipary,2246.0,7.716906135298388,80,very easy to read,30-05-2019 13:02
94,1,recognition,1,3,2,True,Letter designer,sansforgetica,morricit,non-word,Probably seen,0.0,not seen,morking,5071.0,8.531293315795017,80,very easy to read,30-05-2019 13:02
95,1,recognition,1,4,2,True,Letter designer,sansforgetica,anything,word,Sure not seen,1.0,not seen,anyone,2048.0,7.6246189861593985,80,very easy to read,30-05-2019 13:02
96,1,recognition,1,5,2,True,Letter designer,sansforgetica,blearate,non-word,Sure not seen,1.0,not seen,blace,1188.0,7.080026499922591,80,very easy to read,30-05-2019 13:02
97,1,recognition,1,6,2,True,Letter designer,sansforgetica,today,word,Sure seen,1.0,seen,today,1527.0,7.331060305218632,80,very easy to read,30-05-2019 13:02
98,1,recognition,1,7,2,True,Letter designer,sansforgetica,ordered,word,Sure seen,0.0,not seen,order,1128.0,7.0282014320580055,80,very easy to read,30-05-2019 13:02
99,1,recognition,1,8,2,True,Letter designer,sansforgetica,considere,non-word,Sure seen,1.0,seen,considere,1395.0,7.240649694255465,80,very easy to read,30-05-2019 13:02
100,1,recognition,1,9,2,True,Letter designer,sansforgetica,achieved,word,Sure seen,1.0,seen,achieved,1244.0,7.126087273299126,80,very easy to read,30-05-2019 13:02
101,1,recognition,1,10,2,True,Letter designer,sansforgetica,leaves,word,Sure seen,1.0,seen,leaves,1052.0,6.958448393297656,80,very easy to read,30-05-2019 13:02
102,1,recognition,1,11,2,True,Letter designer,sansforgetica,broken,word,Sure not seen,1.0,not seen,british,2010.0,7.6058900010531225,80,very easy to read,30-05-2019 13:02
103,1,recognition,1,12,2,True,Letter designer,sansforgetica,minglem,non-word,Sure seen,1.0,seen,minglem,3677.0,8.209852481301272,80,very easy to read,30-05-2019 13:02
104,1,recognition,1,13,2,True,Letter designer,sansforgetica,papers,word,Sure seen,1.0,seen,papers,1498.0,7.3118861640771655,80,very easy to read,30-05-2019 13:02
105,1,recognition,1,14,2,True,Letter designer,sansforgetica,exampses,non-word,Sure seen,1.0,seen,exampses,1724.0,7.452402451223638,80,very easy to read,30-05-2019 13:02
106,1,recognition,1,15,2,True,Letter designer,sansforgetica,expeantly,non-word,Sure not seen,1.0,not seen,exisonent,1996.0,7.5989004568714105,80,very easy to read,30-05-2019 13:02
107,1,recognition,1,16,2,True,Letter designer,sansforgetica,wessing,non-word,Sure not seen,1.0,not seen,wesisty,1441.0,7.273092595999522,80,very easy to read,30-05-2019 13:02
108,1,lexical,2,1,2,True,Letter designer,sansforgetica,courch,non-word,Probably word,0.0,,,3116.5,8.044465856248905,75,difficult to read,30-05-2019 13:02
109,1,lexical,2,2,2,True,Letter designer,sansforgetica,nationia,non-word,Probably non-word,1.0,,,3626.0,8.195885391314796,75,difficult to read,30-05-2019 13:02
110,1,lexical,2,3,2,True,Letter designer,sansforgetica,empreases,non-word,Probably word,0.0,,,6267.0,8.743053050224676,75,difficult to read,30-05-2019 13:02
111,1,lexical,2,4,2,True,Letter designer,sansforgetica,itself,word,Sure word,1.0,,,1481.0,7.300472814267799,75,difficult to read,30-05-2019 13:02
112,1,lexical,2,5,2,True,Letter designer,sansforgetica,called,word,Sure word,1.0,,,1228.0,7.1131421087070885,75,difficult to read,30-05-2019 13:02
113,1,lexical,2,6,2,True,Letter designer,sansforgetica,proportion,word,Sure word,1.0,,,1055.0,6.961296045910168,75,difficult to read,30-05-2019 13:02
114,1,lexical,2,7,2,True,Letter designer,sansforgetica,wessing,non-word,Probably word,0.0,,,1936.0,7.568379267836523,75,difficult to read,30-05-2019 13:02
115,1,lexical,2,8,2,True,Letter designer,sansforgetica,hands,word,Sure word,1.0,,,1483.0,7.301822342137933,75,difficult to read,30-05-2019 13:02
116,1,lexical,2,9,2,True,Letter designer,sansforgetica,children,word,Sure word,1.0,,,1982.0,7.591861714889934,75,difficult to read,30-05-2019 13:02
117,1,lexical,2,10,2,True,Letter designer,sansforgetica,workers,word,Sure word,1.0,,,1406.0,7.24850407237061,75,difficult to read,30-05-2019 13:02
118,1,lexical,2,11,2,True,Letter designer,sansforgetica,peoped,non-word,Probably non-word,1.0,,,2204.0,7.698029170272805,75,difficult to read,30-05-2019 13:02
119,1,lexical,2,12,2,True,Letter designer,sansforgetica,elemselles,non-word,Sure non-word,1.0,,,3498.0,8.159946655578548,75,difficult to read,30-05-2019 13:02
120,1,lexical,2,13,2,True,Letter designer,sansforgetica,national,word,Sure word,1.0,,,2253.0,7.720017940432244,75,difficult to read,30-05-2019 13:02
121,1,lexical,2,14,2,True,Letter designer,sansforgetica,prought,non-word,Probably word,0.0,,,4981.0,8.513385953073284,75,difficult to read,30-05-2019 13:02
122,1,lexical,2,15,2,True,Letter designer,sansforgetica,difficulty,word,Sure word,1.0,,,1254.0,7.134093721192866,75,difficult to read,30-05-2019 13:02
123,1,lexical,2,16,2,True,Letter designer,sansforgetica,develop,word,Sure word,1.0,,,1275.0,7.150701457592526,75,difficult to read,30-05-2019 13:02
124,1,lexical,2,17,2,True,Letter designer,sansforgetica,happered,non-word,Probably non-word,1.0,,,5286.0,8.572817095164233,75,difficult to read,30-05-2019 13:02
125,1,lexical,2,18,2,True,Letter designer,sansforgetica,excensium,non-word,Probably word,0.0,,,3724.0,8.222553638396956,75,difficult to read,30-05-2019 13:02
126,1,lexical,2,19,2,True,Letter designer,sansforgetica,pocket,word,Sure word,1.0,,,1715.0,7.44716835960004,75,difficult to read,30-05-2019 13:02
127,1,lexical,2,20,2,True,Letter designer,sansforgetica,comething,non-word,Probably word,0.0,,,4408.0,8.391176350832751,75,difficult to read,30-05-2019 13:02
128,1,recognition,2,1,2,True,Letter designer,arial,peoply,non-word,Probably not seen,1.0,not seen,peoped,2349.03125,7.76175828810384,75,difficult to read,30-05-2019 13:02
129,1,recognition,2,2,2,True,Letter designer,arial,world,word,Sure seen,0.0,not seen,workers,1265.0,7.142827401161621,75,difficult to read,30-05-2019 13:02
130,1,recognition,2,3,2,True,Letter designer,arial,commalists,non-word,Sure not seen,1.0,not seen,comething,1705.0,7.4413203897176174,75,difficult to read,30-05-2019 13:02
131,1,recognition,2,4,2,True,Letter designer,arial,courcish,non-word,Probably seen,0.0,not seen,courch,3456.0,8.147867129923947,75,difficult to read,30-05-2019 13:02
132,1,recognition,2,5,2,True,Letter designer,arial,develop,word,Sure seen,1.0,seen,develop,1434.0,7.268223021159565,75,difficult to read,30-05-2019 13:02
133,1,recognition,2,6,2,True,Letter designer,arial,elemselles,non-word,Sure seen,1.0,seen,elemselles,1499.0,7.312553498102599,75,difficult to read,30-05-2019 13:02
134,1,recognition,2,7,2,True,Letter designer,arial,empreases,non-word,Probably seen,1.0,seen,empreases,4648.0,8.444192298531746,75,difficult to read,30-05-2019 13:02
135,1,recognition,2,8,2,True,Letter designer,arial,pointed,word,Sure not seen,1.0,not seen,pocket,2687.0,7.8961806086154915,75,difficult to read,30-05-2019 13:02
136,1,recognition,2,9,2,True,Letter designer,arial,proportion,word,Sure seen,1.0,seen,proportion,1272.0,7.148345743900068,75,difficult to read,30-05-2019 13:02
137,1,recognition,2,10,2,True,Letter designer,arial,children,word,Sure seen,1.0,seen,children,926.0,6.83087423464618,75,difficult to read,30-05-2019 13:02
138,1,recognition,2,11,2,True,Letter designer,arial,wessing,non-word,Sure seen,1.0,seen,wessing,1014.0,6.921658184151129,75,difficult to read,30-05-2019 13:02
139,1,recognition,2,12,2,True,Letter designer,arial,happlemas,non-word,Sure not seen,1.0,not seen,happered,2202.0,7.697121317282625,75,difficult to read,30-05-2019 13:02
140,1,recognition,2,13,2,True,Letter designer,arial,calling,word,Sure not seen,1.0,not seen,called,1877.0,7.537430036586509,75,difficult to read,30-05-2019 13:02
141,1,recognition,2,14,2,True,Letter designer,arial,ideas,word,Sure not seen,1.0,not seen,itself,2711.0,7.905072849498667,75,difficult to read,30-05-2019 13:02
142,1,recognition,2,15,2,True,Letter designer,arial,nationia,non-word,Sure seen,1.0,seen,nationia,1603.0,7.379632152609552,75,difficult to read,30-05-2019 13:02
143,1,recognition,2,16,2,True,Letter designer,arial,difficulty,word,Sure seen,1.0,seen,difficulty,969.0,6.876264611890766,75,difficult to read,30-05-2019 13:02
144,2,lexical,1,1,2,True,Graphic designer,arial,dinded,non-word,Probably non-word,1.0,,,6199.0,8.73214326770192,67,very easy to read,30-05-2019 12:41
145,2,lexical,1,2,2,True,Graphic designer,arial,previtment,non-word,Probably non-word,1.0,,,3714.0,8.219864741912652,67,very easy to read,30-05-2019 12:41
146,2,lexical,1,3,2,True,Graphic designer,arial,martain,non-word,Sure word,0.0,,,2914.0,7.977281986755151,67,very easy to read,30-05-2019 12:41
147,2,lexical,1,4,2,True,Graphic designer,arial,economy,word,Sure word,1.0,,,1532.0,7.334329350300536,67,very easy to read,30-05-2019 12:41
148,2,lexical,1,5,2,True,Graphic designer,arial,modern,word,Sure word,1.0,,,1145.0,7.0431599159883405,67,very easy to read,30-05-2019 12:41
149,2,lexical,1,6,2,True,Graphic designer,arial,dreentic,non-word,Sure non-word,1.0,,,3776.0,8.236420527265391,67,very easy to read,30-05-2019 12:41
150,2,lexical,1,7,2,True,Graphic designer,arial,rooms,word,Sure word,1.0,,,2208.0,7.699842407396987,67,very easy to read,30-05-2019 12:41
151,2,lexical,1,8,2,True,Graphic designer,arial,record,word,Sure word,1.0,,,1932.0,7.566311014772463,67,very easy to read,30-05-2019 12:41
152,2,lexical,1,9,2,True,Graphic designer,arial,damage,word,Sure word,1.0,,,1308.0,7.176254532017144,67,very easy to read,30-05-2019 12:41
153,2,lexical,1,10,2,True,Graphic designer,arial,hopeasis,non-word,Sure non-word,1.0,,,2753.0,7.920446505142608,67,very easy to read,30-05-2019 12:41
154,2,lexical,1,11,2,True,Graphic designer,arial,occognality,non-word,Probably non-word,1.0,,,2518.0,7.8312202146042935,67,very easy to read,30-05-2019 12:41
155,2,lexical,1,12,2,True,Graphic designer,arial,anstons,non-word,Probably non-word,1.0,,,3155.0,8.056743774975313,67,very easy to read,30-05-2019 12:41
156,2,lexical,1,13,2,True,Graphic designer,arial,contact,word,Sure word,1.0,,,1414.0,7.2541778464565185,67,very easy to read,30-05-2019 12:41
157,2,lexical,1,14,2,True,Graphic designer,arial,uncessified,non-word,Sure non-word,1.0,,,5900.0,8.682707629893809,67,very easy to read,30-05-2019 12:41
158,2,lexical,1,15,2,True,Graphic designer,arial,takes,word,Sure word,1.0,,,1557.0,7.350516171833997,67,very easy to read,30-05-2019 12:41
159,2,lexical,1,16,2,True,Graphic designer,arial,trying,word,Sure word,1.0,,,1469.0,7.292337176173878,67,very easy to read,30-05-2019 12:41
160,2,lexical,1,17,2,True,Graphic designer,arial,morning,word,Sure word,1.0,,,1558.0,7.351158226430694,67,very easy to read,30-05-2019 12:41
161,2,lexical,1,18,2,True,Graphic designer,arial,advice,word,Sure word,1.0,,,1024.0,6.931471805599452,67,very easy to read,30-05-2019 12:41
162,2,lexical,1,19,2,True,Graphic designer,arial,alont,non-word,Sure non-word,1.0,,,2096.0,7.647786045440933,67,very easy to read,30-05-2019 12:41
163,2,lexical,1,20,2,True,Graphic designer,arial,immediative,non-word,Sure word,0.0,,,3053.0,8.023879992734878,67,very easy to read,30-05-2019 12:41
164,2,recognition,1,1,2,True,Graphic designer,sansforgetica,anstons,non-word,Sure seen,1.0,seen,anstons,3670.59375,8.208108712704021,67,very easy to read,30-05-2019 12:41
165,2,recognition,1,2,2,True,Graphic designer,sansforgetica,dreentic,non-word,Sure seen,1.0,seen,dreentic,6968.0,8.849083518532337,67,very easy to read,30-05-2019 12:41
166,2,recognition,1,3,2,True,Graphic designer,sansforgetica,occumeted,non-word,Probably not seen,1.0,not seen,occognality,8524.0,9.050640993218508,67,very easy to read,30-05-2019 12:41
167,2,recognition,1,4,2,True,Graphic designer,sansforgetica,mostly,word,Probably not seen,1.0,not seen,morning,3896.0,8.267705664762426,67,very easy to read,30-05-2019 12:41
168,2,recognition,1,5,2,True,Graphic designer,sansforgetica,martain,non-word,Sure seen,1.0,seen,martain,1735.0,7.45876269238096,67,very easy to read,30-05-2019 12:41
169,2,recognition,1,6,2,True,Graphic designer,sansforgetica,advice,word,Sure seen,1.0,seen,advice,1431.0,7.266128779556451,67,very easy to read,30-05-2019 12:41
170,2,recognition,1,7,2,True,Graphic designer,sansforgetica,modern,word,Sure seen,1.0,seen,modern,1142.0,7.040536390215956,67,very easy to read,30-05-2019 12:41
171,2,recognition,1,8,2,True,Graphic designer,sansforgetica,economy,word,Sure seen,1.0,seen,economy,3354.0,8.117908942383156,67,very easy to read,30-05-2019 12:41
172,2,recognition,1,9,2,True,Graphic designer,sansforgetica,taking,word,Probably seen,0.0,not seen,takes,2622.0,7.8716926643236445,67,very easy to read,30-05-2019 12:41
173,2,recognition,1,10,2,True,Graphic designer,sansforgetica,content,word,Sure not seen,1.0,not seen,contact,3540.0,8.17188200612782,67,very easy to read,30-05-2019 12:41
174,2,recognition,1,11,2,True,Graphic designer,sansforgetica,hopeasis,non-word,Probably not seen,0.0,seen,hopeasis,3965.0,8.285261134068946,67,very easy to read,30-05-2019 12:41
175,2,recognition,1,12,2,True,Graphic designer,sansforgetica,turned,word,Probably not seen,1.0,not seen,trying,3003.0,8.007367067983331,67,very easy to read,30-05-2019 12:41
176,2,recognition,1,13,2,True,Graphic designer,sansforgetica,alreado,non-word,Sure not seen,1.0,not seen,alont,4205.0,8.344029572407049,67,very easy to read,30-05-2019 12:41
177,2,recognition,1,14,2,True,Graphic designer,sansforgetica,record,word,Probably seen,1.0,seen,record,3925.0,8.275121630216509,67,very easy to read,30-05-2019 12:41
178,2,recognition,1,15,2,True,Graphic designer,sansforgetica,prewing,non-word,Sure not seen,1.0,not seen,previtment,2321.0,7.749753406274438,67,very easy to read,30-05-2019 12:41
179,2,recognition,1,16,2,True,Graphic designer,sansforgetica,uncomilated,non-word,Probably not seen,1.0,not seen,uncessified,4748.0,8.465478755729558,67,very easy to read,30-05-2019 12:41
180,2,lexical,2,1,2,True,Graphic designer,sansforgetica,message,word,Sure word,1.0,,,4567.0,8.426611813185,67,ok,30-05-2019 12:41
181,2,lexical,2,2,2,True,Graphic designer,sansforgetica,difficulty,word,Sure word,1.0,,,1891.0,7.544861068658457,67,ok,30-05-2019 12:41
182,2,lexical,2,3,2,True,Graphic designer,sansforgetica,mostly,word,Sure word,1.0,,,2145.0,7.670894831362117,67,ok,30-05-2019 12:41
183,2,lexical,2,4,2,True,Graphic designer,sansforgetica,shoulder,word,Sure word,1.0,,,3256.0,8.088254727122429,67,ok,30-05-2019 12:41
184,2,lexical,2,5,2,True,Graphic designer,sansforgetica,foreass,non-word,Probably non-word,1.0,,,3899.0,8.268475388982598,67,ok,30-05-2019 12:41
185,2,lexical,2,6,2,True,Graphic designer,sansforgetica,thick,word,Sure word,1.0,,,1785.0,7.487173694213738,67,ok,30-05-2019 12:41
186,2,lexical,2,7,2,True,Graphic designer,sansforgetica,falling,word,Sure word,1.0,,,1188.0,7.080026499922591,67,ok,30-05-2019 12:41
187,2,lexical,2,8,2,True,Graphic designer,sansforgetica,schieverily,non-word,Sure non-word,1.0,,,5377.0,8.589885876809678,67,ok,30-05-2019 12:41
188,2,lexical,2,9,2,True,Graphic designer,sansforgetica,central,word,Sure word,1.0,,,3422.0,8.137980454452139,67,ok,30-05-2019 12:41
189,2,lexical,2,10,2,True,Graphic designer,sansforgetica,issue,word,Sure word,1.0,,,1063.0,6.968850378341948,67,ok,30-05-2019 12:41
190,2,lexical,2,11,2,True,Graphic designer,sansforgetica,olded,non-word,Sure non-word,1.0,,,4769.0,8.469891918298224,67,ok,30-05-2019 12:41
191,2,lexical,2,12,2,True,Graphic designer,sansforgetica,pigeboy,non-word,Sure non-word,1.0,,,3463.0,8.149890544402423,67,ok,30-05-2019 12:41
192,2,lexical,2,13,2,True,Graphic designer,sansforgetica,allow,word,Sure word,1.0,,,2341.0,7.75833346749091,67,ok,30-05-2019 12:41
193,2,lexical,2,14,2,True,Graphic designer,sansforgetica,impreasive,non-word,Sure non-word,1.0,,,3318.0,8.107117470750389,67,ok,30-05-2019 12:41
194,2,lexical,2,15,2,True,Graphic designer,sansforgetica,childred,non-word,Sure non-word,1.0,,,4035.0,8.302761580704049,67,ok,30-05-2019 12:41
195,2,lexical,2,16,2,True,Graphic designer,sansforgetica,accation,non-word,Sure non-word,1.0,,,4062.0,8.30943074214033,67,ok,30-05-2019 12:41
196,2,lexical,2,17,2,True,Graphic designer,sansforgetica,wationation,non-word,Probably non-word,1.0,,,3724.0,8.222553638396956,67,ok,30-05-2019 12:41
197,2,lexical,2,18,2,True,Graphic designer,sansforgetica,cases,word,Sure word,1.0,,,2398.0,7.7823903355874595,67,ok,30-05-2019 12:41
198,2,lexical,2,19,2,True,Graphic designer,sansforgetica,darrity,non-word,Probably non-word,1.0,,,5576.0,8.62622695244036,67,ok,30-05-2019 12:41
199,2,lexical,2,20,2,True,Graphic designer,sansforgetica,compaganth,non-word,Sure non-word,1.0,,,7082.0,8.86531163267185,67,ok,30-05-2019 12:41
200,2,recognition,2,1,2,True,Graphic designer,arial,difficulty,word,Probably seen,1.0,seen,difficulty,5750.0,8.656955133791397,67,ok,30-05-2019 12:41
201,2,recognition,2,2,2,True,Graphic designer,arial,mostly,word,Sure seen,1.0,seen,mostly,1754.0,7.4696541729321275,67,ok,30-05-2019 12:41
202,2,recognition,2,3,2,True,Graphic designer,arial,showed,word,Probably not seen,1.0,not seen,shoulder,1954.0,7.577633832602728,67,ok,30-05-2019 12:41
203,2,recognition,2,4,2,True,Graphic designer,arial,central,word,Sure seen,1.0,seen,central,1593.0,7.373374309910048,67,ok,30-05-2019 12:41
204,2,recognition,2,5,2,True,Graphic designer,arial,compagency,non-word,Probably not seen,1.0,not seen,compaganth,3616.0,8.193123721512068,67,ok,30-05-2019 12:41
205,2,recognition,2,6,2,True,Graphic designer,arial,forgotter,non-word,Sure not seen,1.0,not seen,foreass,6108.0,8.717354666338522,67,ok,30-05-2019 12:41
206,2,recognition,2,7,2,True,Graphic designer,arial,schieverily,non-word,Probably seen,1.0,seen,schieverily,5000.0,8.517193191416238,67,ok,30-05-2019 12:41
207,2,recognition,2,8,2,True,Graphic designer,arial,almost,word,Sure seen,0.0,not seen,allow,5329.0,8.580918882296782,67,ok,30-05-2019 12:41
208,2,recognition,2,9,2,True,Graphic designer,arial,itself,word,Sure not seen,1.0,not seen,issue,2875.0,7.963807953231451,67,ok,30-05-2019 12:41
209,2,recognition,2,10,2,True,Graphic designer,arial,impreasive,non-word,Probably seen,1.0,seen,impreasive,3258.0,8.088868789161989,67,ok,30-05-2019 12:41
210,2,recognition,2,11,2,True,Graphic designer,arial,familiar,word,Probably not seen,1.0,not seen,falling,1772.0,7.479864131165026,67,ok,30-05-2019 12:41
211,2,recognition,2,12,2,True,Graphic designer,arial,accation,non-word,Sure seen,1.0,seen,accation,3269.0,8.092239406724211,67,ok,30-05-2019 12:41
212,2,recognition,2,13,2,True,Graphic designer,arial,wationation,non-word,Sure seen,1.0,seen,wationation,2237.0,7.71289096149013,67,ok,30-05-2019 12:41
213,2,recognition,2,14,2,True,Graphic designer,arial,message,word,Probably seen,1.0,seen,message,2954.0,7.990915463091325,67,ok,30-05-2019 12:41
214,2,recognition,2,15,2,True,Graphic designer,arial,daymerly,non-word,Sure not seen,1.0,not seen,darrity,2273.0,7.728855823852543,67,ok,30-05-2019 12:41
215,2,recognition,2,16,2,True,Graphic designer,arial,opergence,non-word,Sure not seen,1.0,not seen,olded,2709.0,7.9043348420850945,67,ok,30-05-2019 12:41
216,3,lexical,1,1,2,True,Graphic designer,arial,crevided,non-word,Sure non-word,1.0,,,3904.0,8.269756947532983,70,easy to read,30-05-2019 12:39
217,3,lexical,1,2,2,True,Graphic designer,arial,religious,word,Sure word,1.0,,,1528.0,7.331714969726466,70,easy to read,30-05-2019 12:39
218,3,lexical,1,3,2,True,Graphic designer,arial,reating,non-word,Sure non-word,1.0,,,2113.0,7.655864017616056,70,easy to read,30-05-2019 12:39
219,3,lexical,1,4,2,True,Graphic designer,arial,bound,word,Sure word,1.0,,,1637.0,7.400620577371135,70,easy to read,30-05-2019 12:39
220,3,lexical,1,5,2,True,Graphic designer,arial,minsuit,non-word,Sure non-word,1.0,,,2370.0,7.770645234129176,70,easy to read,30-05-2019 12:39
221,3,lexical,1,6,2,True,Graphic designer,arial,sucling,non-word,Sure non-word,1.0,,,1663.0,7.416378479192928,70,easy to read,30-05-2019 12:39
222,3,lexical,1,7,2,True,Graphic designer,arial,busitown,non-word,Sure non-word,1.0,,,1370.0,7.22256601882217,70,easy to read,30-05-2019 12:39
223,3,lexical,1,8,2,True,Graphic designer,arial,possible,word,Sure word,1.0,,,1686.0,7.430114138561801,70,easy to read,30-05-2019 12:39
224,3,lexical,1,9,2,True,Graphic designer,arial,spread,word,Sure word,1.0,,,1248.0,7.1292975489293715,70,easy to read,30-05-2019 12:39
225,3,lexical,1,10,2,True,Graphic designer,arial,rumbers,non-word,Sure non-word,1.0,,,1600.0,7.377758908227872,70,easy to read,30-05-2019 12:39
226,3,lexical,1,11,2,True,Graphic designer,arial,drices,non-word,Sure word,0.0,,,1746.0,7.465082736399548,70,easy to read,30-05-2019 12:39
227,3,lexical,1,12,2,True,Graphic designer,arial,considered,word,Sure word,1.0,,,1854.0,7.5251007461257995,70,easy to read,30-05-2019 12:39
228,3,lexical,1,13,2,True,Graphic designer,arial,newspable,non-word,Sure non-word,1.0,,,1849.0,7.522400231387126,70,easy to read,30-05-2019 12:39
229,3,lexical,1,14,2,True,Graphic designer,arial,hospital,word,Sure word,1.0,,,1448.0,7.277938572945661,70,easy to read,30-05-2019 12:39
230,3,lexical,1,15,2,True,Graphic designer,arial,govermists,non-word,Sure non-word,1.0,,,1462.0,7.2875606403097235,70,easy to read,30-05-2019 12:39
231,3,lexical,1,16,2,True,Graphic designer,arial,death,word,Sure word,1.0,,,1144.0,7.042286171939742,70,easy to read,30-05-2019 12:39
232,3,lexical,1,17,2,True,Graphic designer,arial,advantage,word,Probably non-word,0.0,,,2344.75,7.759934065389048,70,easy to read,30-05-2019 12:39
233,3,lexical,1,18,2,True,Graphic designer,arial,events,word,Sure word,1.0,,,1552.0,7.3472997007431635,70,easy to read,30-05-2019 12:39
234,3,lexical,1,19,2,True,Graphic designer,arial,explaign,non-word,Sure non-word,1.0,,,1536.0,7.336936913707618,70,easy to read,30-05-2019 12:39
235,3,lexical,1,20,2,True,Graphic designer,arial,generally,word,Sure word,1.0,,,1680.0,7.426549072397305,70,easy to read,30-05-2019 12:39
236,3,recognition,1,1,2,True,Graphic designer,sansforgetica,possible,word,Sure seen,1.0,seen,possible,2321.8125,7.750103409643427,70,easy to read,30-05-2019 12:39
237,3,recognition,1,2,2,True,Graphic designer,sansforgetica,remain,word,Sure not seen,1.0,not seen,religious,3567.0,8.179480185358889,70,easy to read,30-05-2019 12:39
238,3,recognition,1,3,2,True,Graphic designer,sansforgetica,nignawary,non-word,Sure not seen,1.0,not seen,newspable,2080.0,7.640123172695364,70,easy to read,30-05-2019 12:39
239,3,recognition,1,4,2,True,Graphic designer,sansforgetica,hotel,word,Sure not seen,1.0,not seen,hospital,2064.0,7.632401126601453,70,easy to read,30-05-2019 12:39
240,3,recognition,1,5,2,True,Graphic designer,sansforgetica,reating,non-word,Sure seen,1.0,seen,reating,1751.0,7.467942332285852,70,easy to read,30-05-2019 12:39
241,3,recognition,1,6,2,True,Graphic designer,sansforgetica,spread,word,Sure seen,1.0,seen,spread,1368.0,7.221105098182496,70,easy to read,30-05-2019 12:39
242,3,recognition,1,7,2,True,Graphic designer,sansforgetica,bound,word,Sure seen,1.0,seen,bound,1353.0,7.210079628170787,70,easy to read,30-05-2019 12:39
243,3,recognition,1,8,2,True,Graphic designer,sansforgetica,decade,word,Sure not seen,1.0,not seen,death,1551.0,7.346655163176539,70,easy to read,30-05-2019 12:39
244,3,recognition,1,9,2,True,Graphic designer,sansforgetica,minsuit,non-word,Sure seen,1.0,seen,minsuit,1777.0,7.482681828154651,70,easy to read,30-05-2019 12:39
245,3,recognition,1,10,2,True,Graphic designer,sansforgetica,advice,word,Sure not seen,1.0,not seen,advantage,1953.0,7.577121930876678,70,easy to read,30-05-2019 12:39
246,3,recognition,1,11,2,True,Graphic designer,sansforgetica,ruscle,non-word,Sure not seen,1.0,not seen,rumbers,2321.8125,7.750103409643427,70,easy to read,30-05-2019 12:39
247,3,recognition,1,12,2,True,Graphic designer,sansforgetica,events,word,Probably seen,1.0,seen,events,2065.0,7.632885505395132,70,easy to read,30-05-2019 12:39
248,3,recognition,1,13,2,True,Graphic designer,sansforgetica,explanented,non-word,Probably not seen,1.0,not seen,explaign,4168.0,8.335191583433202,70,easy to read,30-05-2019 12:39
249,3,recognition,1,14,2,True,Graphic designer,sansforgetica,busitown,non-word,Sure seen,1.0,seen,busitown,1913.0,7.556427969440253,70,easy to read,30-05-2019 12:39
250,3,recognition,1,15,2,True,Graphic designer,sansforgetica,sucling,non-word,Sure seen,1.0,seen,sucling,1616.0,7.38770923908104,70,easy to read,30-05-2019 12:39
251,3,recognition,1,16,2,True,Graphic designer,sansforgetica,creviver,non-word,Sure seen,0.0,not seen,crevided,1558.0,7.351158226430694,70,easy to read,30-05-2019 12:39
252,3,lexical,2,1,2,True,Graphic designer,sansforgetica,empefic,non-word,Probably non-word,1.0,,,4143.0,8.329175442077402,71,ok,30-05-2019 12:39
253,3,lexical,2,2,2,True,Graphic designer,sansforgetica,disartanter,non-word,Sure non-word,1.0,,,2344.75,7.759934065389048,71,ok,30-05-2019 12:39
254,3,lexical,2,3,2,True,Graphic designer,sansforgetica,prosequents,non-word,Sure non-word,1.0,,,3135.0,8.050384453067021,71,ok,30-05-2019 12:39
255,3,lexical,2,4,2,True,Graphic designer,sansforgetica,streets,word,Sure word,1.0,,,1416.0,7.255591274253665,71,ok,30-05-2019 12:39
256,3,lexical,2,5,2,True,Graphic designer,sansforgetica,through,word,Sure word,1.0,,,1551.0,7.346655163176539,71,ok,30-05-2019 12:39
257,3,lexical,2,6,2,True,Graphic designer,sansforgetica,church,word,Sure word,1.0,,,2666.0,7.888334500738653,71,ok,30-05-2019 12:39
258,3,lexical,2,7,2,True,Graphic designer,sansforgetica,animals,word,Sure word,1.0,,,1430.0,7.265429723253952,71,ok,30-05-2019 12:39
259,3,lexical,2,8,2,True,Graphic designer,sansforgetica,momeons,non-word,Sure non-word,1.0,,,2112.0,7.655390644826152,71,ok,30-05-2019 12:39
260,3,lexical,2,9,2,True,Graphic designer,sansforgetica,claygrable,non-word,Probably non-word,1.0,,,3065.0,8.027802848370312,71,ok,30-05-2019 12:39
261,3,lexical,2,10,2,True,Graphic designer,sansforgetica,cause,word,Sure word,1.0,,,2280.0,7.731930721948487,71,ok,30-05-2019 12:39
262,3,lexical,2,11,2,True,Graphic designer,sansforgetica,prime,word,Sure word,1.0,,,1408.0,7.249925536717987,71,ok,30-05-2019 12:39
263,3,lexical,2,12,2,True,Graphic designer,sansforgetica,rutogement,non-word,Sure non-word,1.0,,,2647.0,7.8811822022271025,71,ok,30-05-2019 12:39
264,3,lexical,2,13,2,True,Graphic designer,sansforgetica,south,word,Sure word,1.0,,,2265.0,7.725330037917135,71,ok,30-05-2019 12:39
265,3,lexical,2,14,2,True,Graphic designer,sansforgetica,dissehons,non-word,Sure non-word,1.0,,,2056.0,7.628517626575055,71,ok,30-05-2019 12:39
266,3,lexical,2,15,2,True,Graphic designer,sansforgetica,hidnectes,non-word,Sure non-word,1.0,,,1984.0,7.592870287844818,71,ok,30-05-2019 12:39
267,3,lexical,2,16,2,True,Graphic designer,sansforgetica,eight,word,Sure word,1.0,,,991.0,6.898714534329987,71,ok,30-05-2019 12:39
268,3,lexical,2,17,2,True,Graphic designer,sansforgetica,invironable,non-word,Sure non-word,1.0,,,2488.0,7.81923445385907,71,ok,30-05-2019 12:39
269,3,lexical,2,18,2,True,Graphic designer,sansforgetica,trees,word,Sure word,1.0,,,1264.0,7.142036574706802,71,ok,30-05-2019 12:39
270,3,lexical,2,19,2,True,Graphic designer,sansforgetica,slightly,word,Sure word,1.0,,,1369.0,7.22183582528845,71,ok,30-05-2019 12:39
271,3,lexical,2,20,2,True,Graphic designer,sansforgetica,garance,non-word,Sure non-word,1.0,,,2344.75,7.759934065389048,71,ok,30-05-2019 12:39
272,3,recognition,2,1,2,True,Graphic designer,arial,higether,non-word,Probably not seen,1.0,not seen,hidnectes,4593.0,8.432288684325794,71,ok,30-05-2019 12:39
273,3,recognition,2,2,2,True,Graphic designer,arial,principle,word,Sure not seen,1.0,not seen,prime,1710.0,7.444248649496705,71,ok,30-05-2019 12:39
274,3,recognition,2,3,2,True,Graphic designer,arial,invironment,non-word,Sure seen,0.0,not seen,invironable,2984.0,8.001019961323651,71,ok,30-05-2019 12:39
275,3,recognition,2,4,2,True,Graphic designer,arial,central,word,Sure not seen,1.0,not seen,cause,1704.0,7.440733707389262,71,ok,30-05-2019 12:39
276,3,recognition,2,5,2,True,Graphic designer,arial,cigarette,word,Sure not seen,1.0,not seen,church,2201.0,7.696667081526463,71,ok,30-05-2019 12:39
277,3,recognition,2,6,2,True,Graphic designer,arial,garance,non-word,Sure seen,1.0,seen,garance,1863.0,7.529943370601589,71,ok,30-05-2019 12:39
278,3,recognition,2,7,2,True,Graphic designer,arial,trees,word,Sure seen,1.0,seen,trees,2593.0,7.8605707855386635,71,ok,30-05-2019 12:39
279,3,recognition,2,8,2,True,Graphic designer,arial,streets,word,Sure seen,1.0,seen,streets,1784.0,7.486613313139955,71,ok,30-05-2019 12:39
280,3,recognition,2,9,2,True,Graphic designer,arial,prosequents,non-word,Probably seen,1.0,seen,prosequents,1672.0,7.421775793644648,71,ok,30-05-2019 12:39
281,3,recognition,2,10,2,True,Graphic designer,arial,discersion,non-word,Probably not seen,1.0,not seen,disartanter,2878.0,7.964850887447313,71,ok,30-05-2019 12:39
282,3,recognition,2,11,2,True,Graphic designer,arial,either,word,Sure not seen,1.0,not seen,eight,1881.0,7.539558829301031,71,ok,30-05-2019 12:39
283,3,recognition,2,12,2,True,Graphic designer,arial,through,word,Sure seen,1.0,seen,through,1432.0,7.266827347520591,71,ok,30-05-2019 12:39
284,3,recognition,2,13,2,True,Graphic designer,arial,dissehons,non-word,Probably seen,1.0,seen,dissehons,2679.0,7.893198869544609,71,ok,30-05-2019 12:39
285,3,recognition,2,14,2,True,Graphic designer,arial,south,word,Sure seen,1.0,seen,south,1186.0,7.07834157955767,71,ok,30-05-2019 12:39
286,3,recognition,2,15,2,True,Graphic designer,arial,rutongance,non-word,Sure seen,0.0,not seen,rutogement,1800.0,7.495541943884256,71,ok,30-05-2019 12:39
287,3,recognition,2,16,2,True,Graphic designer,arial,empefic,non-word,Sure seen,1.0,seen,empefic,1350.0,7.2078598714324755,71,ok,30-05-2019 12:39
288,4,lexical,1,1,2,True,Graphic designer,arial,condamenced,non-word,Probably word,0.0,,,5891.0,8.681181041521688,80,very easy to read,30-05-2019 12:31
289,4,lexical,1,2,2,True,Graphic designer,arial,cheir,non-word,Probably word,0.0,,,5535.0,8.618846845142738,80,very easy to read,30-05-2019 12:31
290,4,lexical,1,3,2,True,Graphic designer,arial,marmly,non-word,Probably word,0.0,,,3834.0,8.251663923605589,80,very easy to read,30-05-2019 12:31
291,4,lexical,1,4,2,True,Graphic designer,arial,depending,non-word,Sure word,0.0,,,2006.0,7.603897968521881,80,very easy to read,30-05-2019 12:31
292,4,lexical,1,5,2,True,Graphic designer,arial,amerying,non-word,Probably word,0.0,,,4892.0,8.495356496807062,80,very easy to read,30-05-2019 12:31
293,4,lexical,1,6,2,True,Graphic designer,arial,older,word,Sure word,1.0,,,1602.0,7.379008127628304,80,very easy to read,30-05-2019 12:31
294,4,lexical,1,7,2,True,Graphic designer,arial,millars,non-word,Probably word,0.0,,,3647.0,8.20166019080868,80,very easy to read,30-05-2019 12:31
295,4,lexical,1,8,2,True,Graphic designer,arial,command,word,Sure word,1.0,,,1582.0,7.366445148327599,80,very easy to read,30-05-2019 12:31
296,4,lexical,1,9,2,True,Graphic designer,arial,happy,word,Sure word,1.0,,,1136.0,7.035268599281098,80,very easy to read,30-05-2019 12:31
297,4,lexical,1,10,2,True,Graphic designer,arial,politics,word,Sure word,1.0,,,1087.0,6.99117688712121,80,very easy to read,30-05-2019 12:31
298,4,lexical,1,11,2,True,Graphic designer,arial,choice,word,Sure word,1.0,,,989.0,6.8966943316227125,80,very easy to read,30-05-2019 12:31
299,4,lexical,1,12,2,True,Graphic designer,arial,teeth,word,Sure word,1.0,,,1700.0,7.438383530044308,80,very easy to read,30-05-2019 12:31
300,4,lexical,1,13,2,True,Graphic designer,arial,impoining,non-word,Probably non-word,1.0,,,7798.0,8.961622569542543,80,very easy to read,30-05-2019 12:31
301,4,lexical,1,14,2,True,Graphic designer,arial,stared,word,Sure word,1.0,,,2046.0,7.6236419465115715,80,very easy to read,30-05-2019 12:31
302,4,lexical,1,15,2,True,Graphic designer,arial,history,word,Sure word,1.0,,,1472.0,7.294377299288821,80,very easy to read,30-05-2019 12:31
303,4,lexical,1,16,2,True,Graphic designer,arial,parearch,non-word,Probably non-word,1.0,,,7986.0,8.985445287623168,80,very easy to read,30-05-2019 12:31
304,4,lexical,1,17,2,True,Graphic designer,arial,changing,word,Sure word,1.0,,,1573.0,7.360739903058278,80,very easy to read,30-05-2019 12:31
305,4,lexical,1,18,2,True,Graphic designer,arial,called,word,Sure word,1.0,,,908.0,6.811244378601294,80,very easy to read,30-05-2019 12:31
306,4,lexical,1,19,2,True,Graphic designer,arial,consicular,non-word,Probably word,0.0,,,4811.0,8.478660241699453,80,very easy to read,30-05-2019 12:31
307,4,lexical,1,20,2,True,Graphic designer,arial,invironable,non-word,Probably word,0.0,,,4240.0,8.352318548226004,80,very easy to read,30-05-2019 12:31
308,4,recognition,1,1,2,True,Graphic designer,sansforgetica,minalry,non-word,Probably not seen,1.0,not seen,millars,2961.9375,7.993598893997426,80,very easy to read,30-05-2019 12:31
309,4,recognition,1,2,2,True,Graphic designer,sansforgetica,commercial,word,Sure not seen,1.0,not seen,command,2599.0,7.86288203464149,80,very easy to read,30-05-2019 12:31
310,4,recognition,1,3,2,True,Graphic designer,sansforgetica,changing,word,Probably seen,1.0,seen,changing,2060.0,7.630461261783628,80,very easy to read,30-05-2019 12:31
311,4,recognition,1,4,2,True,Graphic designer,sansforgetica,older,word,Sure seen,1.0,seen,older,1414.0,7.2541778464565185,80,very easy to read,30-05-2019 12:31
312,4,recognition,1,5,2,True,Graphic designer,sansforgetica,calling,word,Sure seen,0.0,not seen,called,1058.0,6.964135612418245,80,very easy to read,30-05-2019 12:31
313,4,recognition,1,6,2,True,Graphic designer,sansforgetica,cheir,non-word,Sure seen,1.0,seen,cheir,1087.0,6.99117688712121,80,very easy to read,30-05-2019 12:31
314,4,recognition,1,7,2,True,Graphic designer,sansforgetica,happy,word,Sure seen,1.0,seen,happy,919.0,6.823286122355688,80,very easy to read,30-05-2019 12:31
315,4,recognition,1,8,2,True,Graphic designer,sansforgetica,marmly,non-word,Sure seen,1.0,seen,marmly,1295.0,7.166265974133638,80,very easy to read,30-05-2019 12:31
316,4,recognition,1,9,2,True,Graphic designer,sansforgetica,amerying,non-word,Probably not seen,0.0,seen,amerying,7316.0,8.897819009510759,80,very easy to read,30-05-2019 12:31
317,4,recognition,1,10,2,True,Graphic designer,sansforgetica,invironment,non-word,Sure seen,0.0,not seen,invironable,3193.0,8.068716192714781,80,very easy to read,30-05-2019 12:31
318,4,recognition,1,11,2,True,Graphic designer,sansforgetica,condamenced,non-word,Probably not seen,0.0,seen,condamenced,2961.9375,7.993598893997426,80,very easy to read,30-05-2019 12:31
319,4,recognition,1,12,2,True,Graphic designer,sansforgetica,considance,non-word,Probably not seen,1.0,not seen,consicular,3696.0,8.215006432761575,80,very easy to read,30-05-2019 12:31
320,4,recognition,1,13,2,True,Graphic designer,sansforgetica,stars,word,Sure not seen,1.0,not seen,stared,1632.0,7.397561535524052,80,very easy to read,30-05-2019 12:31
321,4,recognition,1,14,2,True,Graphic designer,sansforgetica,politics,word,Sure seen,1.0,seen,politics,1383.0,7.232010331664759,80,very easy to read,30-05-2019 12:31
322,4,recognition,1,15,2,True,Graphic designer,sansforgetica,holding,word,Sure not seen,1.0,not seen,history,3006.0,8.00836557031292,80,very easy to read,30-05-2019 12:31
323,4,recognition,1,16,2,True,Graphic designer,sansforgetica,depernment,non-word,Probably not seen,1.0,not seen,depending,4280.0,8.361708288575842,80,very easy to read,30-05-2019 12:31
324,4,lexical,2,1,2,True,Graphic designer,sansforgetica,seriver,non-word,Probably non-word,1.0,,,10193.0,9.229456489168413,50,difficult to read,30-05-2019 12:31
325,4,lexical,2,2,2,True,Graphic designer,sansforgetica,available,word,Sure word,1.0,,,1502.0,7.314552832324081,50,difficult to read,30-05-2019 12:31
326,4,lexical,2,3,2,True,Graphic designer,sansforgetica,speciah,non-word,Probably non-word,1.0,,,7433.0,8.913684824725292,50,difficult to read,30-05-2019 12:31
327,4,lexical,2,4,2,True,Graphic designer,sansforgetica,ordinary,word,Sure word,1.0,,,2126.0,7.661997558901893,50,difficult to read,30-05-2019 12:31
328,4,lexical,2,5,2,True,Graphic designer,sansforgetica,waste,word,Sure word,1.0,,,1671.0,7.4211775285953925,50,difficult to read,30-05-2019 12:31
329,4,lexical,2,6,2,True,Graphic designer,sansforgetica,dreentic,non-word,Probably non-word,1.0,,,5091.0,8.535229553902338,50,difficult to read,30-05-2019 12:31
330,4,lexical,2,7,2,True,Graphic designer,sansforgetica,getting,word,Sure word,1.0,,,1700.0,7.438383530044308,50,difficult to read,30-05-2019 12:31
331,4,lexical,2,8,2,True,Graphic designer,sansforgetica,antendship,non-word,Probably non-word,1.0,,,7652.0,8.942722330560143,50,difficult to read,30-05-2019 12:31
332,4,lexical,2,9,2,True,Graphic designer,sansforgetica,simplete,non-word,Sure non-word,1.0,,,4596.0,8.432941638968646,50,difficult to read,30-05-2019 12:31
333,4,lexical,2,10,2,True,Graphic designer,sansforgetica,tealissed,non-word,Probably non-word,1.0,,,7504.0,8.92319149068606,50,difficult to read,30-05-2019 12:31
334,4,lexical,2,11,2,True,Graphic designer,sansforgetica,thirty,word,Sure word,1.0,,,1898.0,7.5485559791698735,50,difficult to read,30-05-2019 12:31
335,4,lexical,2,12,2,True,Graphic designer,sansforgetica,maybe,word,Sure word,1.0,,,890.0,6.7912214627261855,50,difficult to read,30-05-2019 12:31
336,4,lexical,2,13,2,True,Graphic designer,sansforgetica,examped,non-word,Sure word,0.0,,,1137.0,7.036148493750536,50,difficult to read,30-05-2019 12:31
337,4,lexical,2,14,2,True,Graphic designer,sansforgetica,trial,word,Sure word,1.0,,,2244.0,7.7160152666425885,50,difficult to read,30-05-2019 12:31
338,4,lexical,2,15,2,True,Graphic designer,sansforgetica,office,word,Sure word,1.0,,,1256.0,7.135687347028143,50,difficult to read,30-05-2019 12:31
339,4,lexical,2,16,2,True,Graphic designer,sansforgetica,branch,word,Probably non-word,0.0,,,5377.0,8.589885876809678,50,difficult to read,30-05-2019 12:31
340,4,lexical,2,17,2,True,Graphic designer,sansforgetica,frafering,non-word,Probably non-word,1.0,,,5655.0,8.640295388550221,50,difficult to read,30-05-2019 12:31
341,4,lexical,2,18,2,True,Graphic designer,sansforgetica,capossed,non-word,Probably non-word,1.0,,,3203.0,8.071843149609156,50,difficult to read,30-05-2019 12:31
342,4,lexical,2,19,2,True,Graphic designer,sansforgetica,shound,non-word,Probably non-word,1.0,,,6664.0,8.804475183846678,50,difficult to read,30-05-2019 12:31
343,4,lexical,2,20,2,True,Graphic designer,sansforgetica,enormous,word,Sure word,1.0,,,2054.0,7.627544390488503,50,difficult to read,30-05-2019 12:31
344,4,recognition,2,1,2,True,Graphic designer,arial,enough,word,Probably not seen,1.0,not seen,enormous,6061.0,8.709630081951286,50,difficult to read,30-05-2019 12:31
345,4,recognition,2,2,2,True,Graphic designer,arial,frafering,non-word,Sure seen,1.0,seen,frafering,1818.0,7.505492274737423,50,difficult to read,30-05-2019 12:31
346,4,recognition,2,3,2,True,Graphic designer,arial,getting,word,Sure seen,1.0,seen,getting,3985.0,8.290292591224315,50,difficult to read,30-05-2019 12:31
347,4,recognition,2,4,2,True,Graphic designer,arial,officers,word,Sure not seen,1.0,not seen,office,2689.0,7.8969246562688635,50,difficult to read,30-05-2019 12:31
348,4,recognition,2,5,2,True,Graphic designer,arial,trial,word,Sure seen,1.0,seen,trial,1197.0,7.087573705557972,50,difficult to read,30-05-2019 12:31
349,4,recognition,2,6,2,True,Graphic designer,arial,bread,word,Sure not seen,1.0,not seen,branch,2381.0,7.7752758464868625,50,difficult to read,30-05-2019 12:31
350,4,recognition,2,7,2,True,Graphic designer,arial,available,word,Sure seen,1.0,seen,available,1454.0,7.282073658093465,50,difficult to read,30-05-2019 12:31
351,4,recognition,2,8,2,True,Graphic designer,arial,drestion,non-word,Probably not seen,1.0,not seen,dreentic,2076.0,7.638198244285777,50,difficult to read,30-05-2019 12:31
352,4,recognition,2,9,2,True,Graphic designer,arial,antendship,non-word,Sure seen,1.0,seen,antendship,1632.0,7.397561535524052,50,difficult to read,30-05-2019 12:31
353,4,recognition,2,10,2,True,Graphic designer,arial,simplete,non-word,Sure seen,1.0,seen,simplete,3115.0,8.043984431221553,50,difficult to read,30-05-2019 12:31
354,4,recognition,2,11,2,True,Graphic designer,arial,speciah,non-word,Sure seen,1.0,seen,speciah,2146.0,7.671360923190644,50,difficult to read,30-05-2019 12:31
355,4,recognition,2,12,2,True,Graphic designer,arial,those,word,Probably not seen,1.0,not seen,thirty,3677.0,8.209852481301272,50,difficult to read,30-05-2019 12:31
356,4,recognition,2,13,2,True,Graphic designer,arial,waste,word,Sure seen,1.0,seen,waste,1316.0,7.182352111885263,50,difficult to read,30-05-2019 12:31
357,4,recognition,2,14,2,True,Graphic designer,arial,teliquely,non-word,Sure not seen,1.0,not seen,tealissed,1591.0,7.372118028337788,50,difficult to read,30-05-2019 12:31
358,4,recognition,2,15,2,True,Graphic designer,arial,serry,non-word,Sure not seen,1.0,not seen,seriver,1385.0,7.233455418621439,50,difficult to read,30-05-2019 12:31
359,4,recognition,2,16,2,True,Graphic designer,arial,exampses,non-word,Sure not seen,1.0,not seen,examped,2274.0,7.729295674310483,50,difficult to read,30-05-2019 12:31
360,5,lexical,1,1,2,True,Non-designer,arial,mental,word,Sure word,1.0,,,2178.0,7.686162303492906,70,very easy to read,30-05-2019 06:10
361,5,lexical,1,2,2,True,Non-designer,arial,happened,word,Sure word,1.0,,,1672.0,7.421775793644648,70,very easy to read,30-05-2019 06:10
362,5,lexical,1,3,2,True,Non-designer,arial,funditunian,non-word,Probably non-word,1.0,,,3924.0,8.274866820685254,70,very easy to read,30-05-2019 06:10
363,5,lexical,1,4,2,True,Non-designer,arial,someone,word,Sure word,1.0,,,1525.0,7.329749689041513,70,very easy to read,30-05-2019 06:10
364,5,lexical,1,5,2,True,Non-designer,arial,showed,word,Sure word,1.0,,,1703.0,7.440146680662688,70,very easy to read,30-05-2019 06:10
365,5,lexical,1,6,2,True,Non-designer,arial,bodder,non-word,Probably non-word,1.0,,,1945.2,7.573120078529631,70,very easy to read,30-05-2019 06:10
366,5,lexical,1,7,2,True,Non-designer,arial,extremics,non-word,Probably word,0.0,,,1945.2,7.573120078529631,70,very easy to read,30-05-2019 06:10
367,5,lexical,1,8,2,True,Non-designer,arial,games,word,Sure word,1.0,,,1464.0,7.2889276945212575,70,very easy to read,30-05-2019 06:10
368,5,lexical,1,9,2,True,Non-designer,arial,morking,non-word,Probably non-word,1.0,,,2617.0,7.869783902530147,70,very easy to read,30-05-2019 06:10
369,5,lexical,1,10,2,True,Non-designer,arial,today,word,Sure word,1.0,,,1434.0,7.268223021159565,70,very easy to read,30-05-2019 06:10
370,5,lexical,1,11,2,True,Non-designer,arial,impriavelly,non-word,Probably non-word,1.0,,,2032.0,7.616775808698372,70,very easy to read,30-05-2019 06:10
371,5,lexical,1,12,2,True,Non-designer,arial,unione,non-word,Probably non-word,1.0,,,2271.0,7.7279755421055585,70,very easy to read,30-05-2019 06:10
372,5,lexical,1,13,2,True,Non-designer,arial,monded,non-word,Probably non-word,1.0,,,3957.0,8.283241441385425,70,very easy to read,30-05-2019 06:10
373,5,lexical,1,14,2,True,Non-designer,arial,pretectely,non-word,Probably non-word,1.0,,,1307.0,7.175489713624223,70,very easy to read,30-05-2019 06:10
374,5,lexical,1,15,2,True,Non-designer,arial,sector,word,Sure word,1.0,,,1405.0,7.247792581767846,70,very easy to read,30-05-2019 06:10
375,5,lexical,1,16,2,True,Non-designer,arial,language,word,Sure word,1.0,,,1399.0,7.243512974665482,70,very easy to read,30-05-2019 06:10
376,5,lexical,1,17,2,True,Non-designer,arial,previtment,non-word,Probably non-word,1.0,,,2009.0,7.605392364814935,70,very easy to read,30-05-2019 06:10
377,5,lexical,1,18,2,True,Non-designer,arial,wrote,word,Sure word,1.0,,,1103.0,7.005789019253503,70,very easy to read,30-05-2019 06:10
378,5,lexical,1,19,2,True,Non-designer,arial,night,word,Sure word,1.0,,,1605.0,7.380879035564116,70,very easy to read,30-05-2019 06:10
379,5,lexical,1,20,2,True,Non-designer,arial,occalution,non-word,Sure non-word,1.0,,,2202.0,7.697121317282625,70,very easy to read,30-05-2019 06:10
380,5,recognition,1,1,2,True,Non-designer,sansforgetica,mention,word,Sure not seen,1.0,not seen,mental,2196.53125,7.694634690494233,70,very easy to read,30-05-2019 06:10
381,5,recognition,1,2,2,True,Non-designer,sansforgetica,moopected,non-word,Sure not seen,1.0,not seen,monded,3479.0,8.154500175151941,70,very easy to read,30-05-2019 06:10
382,5,recognition,1,3,2,True,Non-designer,sansforgetica,night,word,Sure seen,1.0,seen,night,2173.0,7.683863980256429,70,very easy to read,30-05-2019 06:10
383,5,recognition,1,4,2,True,Non-designer,sansforgetica,wrote,word,Sure seen,1.0,seen,wrote,1211.0,7.099201743553093,70,very easy to read,30-05-2019 06:10
384,5,recognition,1,5,2,True,Non-designer,sansforgetica,morricit,non-word,Sure not seen,1.0,not seen,morking,3613.0,8.19229373114764,70,very easy to read,30-05-2019 06:10
385,5,recognition,1,6,2,True,Non-designer,sansforgetica,garden,word,Sure not seen,1.0,not seen,games,1874.0,7.535830462798367,70,very easy to read,30-05-2019 06:10
386,5,recognition,1,7,2,True,Non-designer,sansforgetica,funditunian,non-word,Sure seen,1.0,seen,funditunian,3661.0,8.205491613120236,70,very easy to read,30-05-2019 06:10
387,5,recognition,1,8,2,True,Non-designer,sansforgetica,bodder,non-word,Sure seen,1.0,seen,bodder,1275.0,7.150701457592526,70,very easy to read,30-05-2019 06:10
388,5,recognition,1,9,2,True,Non-designer,sansforgetica,impriavelly,non-word,Probably not seen,0.0,seen,impriavelly,2762.0,7.923710333969238,70,very easy to read,30-05-2019 06:10
389,5,recognition,1,10,2,True,Non-designer,sansforgetica,today,word,Probably not seen,0.0,seen,today,2615.0,7.869019376499022,70,very easy to read,30-05-2019 06:10
390,5,recognition,1,11,2,True,Non-designer,sansforgetica,univerence,non-word,Probably not seen,1.0,not seen,unione,1615.0,7.387090235656757,70,very easy to read,30-05-2019 06:10
391,5,recognition,1,12,2,True,Non-designer,sansforgetica,sector,word,Sure seen,1.0,seen,sector,1358.0,7.213768308118643,70,very easy to read,30-05-2019 06:10
392,5,recognition,1,13,2,True,Non-designer,sansforgetica,occational,non-word,Sure seen,0.0,not seen,occalution,1608.0,7.382746449738913,70,very easy to read,30-05-2019 06:10
393,5,recognition,1,14,2,True,Non-designer,sansforgetica,pretectely,non-word,Sure seen,1.0,seen,pretectely,1306.0,7.1747243098363755,70,very easy to read,30-05-2019 06:10
394,5,recognition,1,15,2,True,Non-designer,sansforgetica,something,word,Probably not seen,1.0,not seen,someone,1785.0,7.487173694213738,70,very easy to read,30-05-2019 06:10
395,5,recognition,1,16,2,True,Non-designer,sansforgetica,happening,word,Probably not seen,1.0,not seen,happened,1368.0,7.221105098182496,70,very easy to read,30-05-2019 06:10
396,5,lexical,2,1,2,True,Non-designer,sansforgetica,contact,word,Sure word,1.0,,,3631.0,8.197263371414335,80,ok,30-05-2019 06:10
397,5,lexical,2,2,2,True,Non-designer,sansforgetica,moral,word,Sure word,1.0,,,1211.0,7.099201743553093,80,ok,30-05-2019 06:10
398,5,lexical,2,3,2,True,Non-designer,sansforgetica,removed,word,Sure word,1.0,,,994.0,6.901737206656574,80,ok,30-05-2019 06:10
399,5,lexical,2,4,2,True,Non-designer,sansforgetica,mayer,non-word,Probably non-word,1.0,,,1738.0,7.4604903058253385,80,ok,30-05-2019 06:10
400,5,lexical,2,5,2,True,Non-designer,sansforgetica,angry,word,Sure word,1.0,,,1125.0,7.0255383146385215,80,ok,30-05-2019 06:10
401,5,lexical,2,6,2,True,Non-designer,sansforgetica,wassia,non-word,Probably non-word,1.0,,,1311.0,7.178545483763701,80,ok,30-05-2019 06:10
402,5,lexical,2,7,2,True,Non-designer,sansforgetica,retter,non-word,Probably non-word,1.0,,,1723.0,7.45182223652793,80,ok,30-05-2019 06:10
403,5,lexical,2,8,2,True,Non-designer,sansforgetica,vulnership,non-word,Probably non-word,1.0,,,1983.0,7.592366128519796,80,ok,30-05-2019 06:10
404,5,lexical,2,9,2,True,Non-designer,sansforgetica,decky,non-word,Probably non-word,1.0,,,1689.0,7.4318919168078,80,ok,30-05-2019 06:10
405,5,lexical,2,10,2,True,Non-designer,sansforgetica,drawn,word,Sure word,1.0,,,1217.0,7.104144092987528,80,ok,30-05-2019 06:10
406,5,lexical,2,11,2,True,Non-designer,sansforgetica,audience,word,Sure word,1.0,,,1375.0,7.226209010100671,80,ok,30-05-2019 06:10
407,5,lexical,2,12,2,True,Non-designer,sansforgetica,travel,word,Sure word,1.0,,,1042.0,6.948897222313312,80,ok,30-05-2019 06:10
408,5,lexical,2,13,2,True,Non-designer,sansforgetica,provisted,non-word,Probably non-word,1.0,,,1493.0,7.30854279753919,80,ok,30-05-2019 06:10
409,5,lexical,2,14,2,True,Non-designer,sansforgetica,equally,word,Sure word,1.0,,,1091.0,6.9948499858330715,80,ok,30-05-2019 06:10
410,5,lexical,2,15,2,True,Non-designer,sansforgetica,libertably,non-word,Probably non-word,1.0,,,1999.0,7.6004023345004,80,ok,30-05-2019 06:10
411,5,lexical,2,16,2,True,Non-designer,sansforgetica,leasumated,non-word,Probably non-word,1.0,,,1533.0,7.334981878871814,80,ok,30-05-2019 06:10
412,5,lexical,2,17,2,True,Non-designer,sansforgetica,achieved,word,Sure word,1.0,,,1900.0,7.549609165154532,80,ok,30-05-2019 06:10
413,5,lexical,2,18,2,True,Non-designer,sansforgetica,danger,word,Sure word,1.0,,,1936.0,7.568379267836523,80,ok,30-05-2019 06:10
414,5,lexical,2,19,2,True,Non-designer,sansforgetica,plasumer,non-word,Sure non-word,1.0,,,1508.0,7.318539548567902,80,ok,30-05-2019 06:10
415,5,lexical,2,20,2,True,Non-designer,sansforgetica,becieve,non-word,Sure non-word,1.0,,,1739.0,7.461065514354282,80,ok,30-05-2019 06:10
416,5,recognition,2,1,2,True,Non-designer,arial,leauty,non-word,Sure not seen,1.0,not seen,leasumated,3521.0,8.166500319155054,80,ok,30-05-2019 06:10
417,5,recognition,2,2,2,True,Non-designer,arial,dangerous,word,Sure seen,0.0,not seen,danger,2364.0,7.7681103785259875,80,ok,30-05-2019 06:10
418,5,recognition,2,3,2,True,Non-designer,arial,plasumer,non-word,Sure seen,1.0,seen,plasumer,1326.0,7.189922170745808,80,ok,30-05-2019 06:10
419,5,recognition,2,4,2,True,Non-designer,arial,angry,word,Sure seen,1.0,seen,angry,1705.0,7.4413203897176174,80,ok,30-05-2019 06:10
420,5,recognition,2,5,2,True,Non-designer,arial,treated,word,Probably not seen,1.0,not seen,travel,1714.0,7.4465850991577245,80,ok,30-05-2019 06:10
421,5,recognition,2,6,2,True,Non-designer,arial,valeamer,non-word,Sure seen,0.0,not seen,vulnership,1688.0,7.431299675155902,80,ok,30-05-2019 06:10
422,5,recognition,2,7,2,True,Non-designer,arial,drawn,word,Sure seen,1.0,seen,drawn,1093.0,6.996681488176539,80,ok,30-05-2019 06:10
423,5,recognition,2,8,2,True,Non-designer,arial,decommental,non-word,Probably not seen,1.0,not seen,decky,2012.0,7.60688453121963,80,ok,30-05-2019 06:10
424,5,recognition,2,9,2,True,Non-designer,arial,content,word,Sure seen,0.0,not seen,contact,1430.0,7.265429723253952,80,ok,30-05-2019 06:10
425,5,recognition,2,10,2,True,Non-designer,arial,wassia,non-word,Sure seen,1.0,seen,wassia,1031.0,6.938284484016959,80,ok,30-05-2019 06:10
426,5,recognition,2,11,2,True,Non-designer,arial,morning,word,Sure seen,0.0,not seen,moral,2035.0,7.618251097876695,80,ok,30-05-2019 06:10
427,5,recognition,2,12,2,True,Non-designer,arial,beckeys,non-word,Probably not seen,1.0,not seen,becieve,1348.0,7.206377291472252,80,ok,30-05-2019 06:10
428,5,recognition,2,13,2,True,Non-designer,arial,equally,word,Sure seen,1.0,seen,equally,1208.0,7.0967213784947605,80,ok,30-05-2019 06:10
429,5,recognition,2,14,2,True,Non-designer,arial,libertably,non-word,Sure seen,1.0,seen,libertably,2050.0,7.625595072132453,80,ok,30-05-2019 06:10
430,5,recognition,2,15,2,True,Non-designer,arial,removed,word,Probably not seen,0.0,seen,removed,2392.0,7.779885115070523,80,ok,30-05-2019 06:10
431,5,recognition,2,16,2,True,Non-designer,arial,provisted,non-word,Probably seen,1.0,seen,provisted,3469.0,8.15162164696975,80,ok,30-05-2019 06:10
432,6,lexical,1,1,2,False,Non-designer,arial,follow,word,Sure word,1.0,,,1447.0,7.277247726631483,20,easy to read,29-05-2019 08:58
433,6,lexical,1,2,2,False,Non-designer,arial,activities,word,Sure word,1.0,,,1151.0,7.048386408721884,20,easy to read,29-05-2019 08:58
434,6,lexical,1,3,2,False,Non-designer,arial,brime,non-word,Probably word,0.0,,,3832.0,8.251142139090751,20,easy to read,29-05-2019 08:58
435,6,lexical,1,4,2,False,Non-designer,arial,gives,word,Sure word,1.0,,,1447.0,7.277247726631483,20,easy to read,29-05-2019 08:58
436,6,lexical,1,5,2,False,Non-designer,arial,names,word,Sure word,1.0,,,1209.0,7.0975488506147935,20,easy to read,29-05-2019 08:58
437,6,lexical,1,6,2,False,Non-designer,arial,caparetter,non-word,Sure non-word,1.0,,,2461.0,7.808323050391055,20,easy to read,29-05-2019 08:58
438,6,lexical,1,7,2,False,Non-designer,arial,blearate,non-word,Sure non-word,1.0,,,1861.0,7.528869256642251,20,easy to read,29-05-2019 08:58
439,6,lexical,1,8,2,False,Non-designer,arial,reating,non-word,Sure non-word,1.0,,,3557.0,8.176672771948455,20,easy to read,29-05-2019 08:58
440,6,lexical,1,9,2,False,Non-designer,arial,standards,word,Sure word,1.0,,,1793.0,7.491645473605133,20,easy to read,29-05-2019 08:58
441,6,lexical,1,10,2,False,Non-designer,arial,repearated,non-word,Sure non-word,1.0,,,1952.0,7.576609766973037,20,easy to read,29-05-2019 08:58
442,6,lexical,1,11,2,False,Non-designer,arial,speaking,word,Sure word,1.0,,,1404.0,7.247080584585756,20,easy to read,29-05-2019 08:58
443,6,lexical,1,12,2,False,Non-designer,arial,fairly,word,Sure word,1.0,,,1757.0,7.471363088187097,20,easy to read,29-05-2019 08:58
444,6,lexical,1,13,2,False,Non-designer,arial,vegantable,non-word,Probably word,0.0,,,5353.0,8.585412430393381,20,easy to read,29-05-2019 08:58
445,6,lexical,1,14,2,False,Non-designer,arial,exerional,non-word,Probably word,0.0,,,4185.0,8.339261982923576,20,easy to read,29-05-2019 08:58
446,6,lexical,1,15,2,False,Non-designer,arial,persondants,non-word,Sure non-word,1.0,,,3089.0,8.035602692918582,20,easy to read,29-05-2019 08:58
447,6,lexical,1,16,2,False,Non-designer,arial,stage,word,Sure word,1.0,,,1337.0,7.1981835771019425,20,easy to read,29-05-2019 08:58
448,6,lexical,1,17,2,False,Non-designer,arial,centoment,non-word,Sure non-word,1.0,,,5262.0,8.568266461600237,20,easy to read,29-05-2019 08:58
449,6,lexical,1,18,2,False,Non-designer,arial,allond,non-word,Sure non-word,1.0,,,1825.0,7.509335266016593,20,easy to read,29-05-2019 08:58
450,6,lexical,1,19,2,False,Non-designer,arial,spoke,word,Sure word,1.0,,,2235.0,7.711996507047669,20,easy to read,29-05-2019 08:58
451,6,lexical,1,20,2,False,Non-designer,arial,field,word,Sure word,1.0,,,1006.0,6.9137373506596855,20,easy to read,29-05-2019 08:58
452,6,recognition,1,1,2,False,Non-designer,sansforgetica,capites,non-word,Probably not seen,1.0,not seen,caparetter,2318.90625,7.7488509095301925,20,easy to read,29-05-2019 08:58
453,6,recognition,1,2,2,False,Non-designer,sansforgetica,brisis,non-word,Sure not seen,1.0,not seen,brime,1967.0,7.584264818389058,20,easy to read,29-05-2019 08:58
454,6,recognition,1,3,2,False,Non-designer,sansforgetica,speaking,word,Probably seen,1.0,seen,speaking,2318.90625,7.7488509095301925,20,easy to read,29-05-2019 08:58
455,6,recognition,1,4,2,False,Non-designer,sansforgetica,fairly,word,Sure seen,1.0,seen,fairly,1410.0,7.2513449833722134,20,easy to read,29-05-2019 08:58
456,6,recognition,1,5,2,False,Non-designer,sansforgetica,field,word,Sure seen,1.0,seen,field,908.0,6.811244378601294,20,easy to read,29-05-2019 08:58
457,6,recognition,1,6,2,False,Non-designer,sansforgetica,narrow,word,Sure not seen,1.0,not seen,names,2579.0,7.855157005881344,20,easy to read,29-05-2019 08:58
458,6,recognition,1,7,2,False,Non-designer,sansforgetica,exisonent,non-word,Probably not seen,1.0,not seen,exerional,2986.0,8.001689978099135,20,easy to read,29-05-2019 08:58
459,6,recognition,1,8,2,False,Non-designer,sansforgetica,giving,word,Sure seen,0.0,not seen,gives,2142.0,7.669495251007693,20,easy to read,29-05-2019 08:58
460,6,recognition,1,9,2,False,Non-designer,sansforgetica,repearated,non-word,Sure seen,1.0,seen,repearated,2207.0,7.699389406256738,20,easy to read,29-05-2019 08:58
461,6,recognition,1,10,2,False,Non-designer,sansforgetica,actual,word,Probably not seen,1.0,not seen,activities,4139.0,8.328209491748732,20,easy to read,29-05-2019 08:58
462,6,recognition,1,11,2,False,Non-designer,sansforgetica,allond,non-word,Sure seen,1.0,seen,allond,1349.0,7.207118856207756,20,easy to read,29-05-2019 08:58
463,6,recognition,1,12,2,False,Non-designer,sansforgetica,spoke,word,Sure seen,1.0,seen,spoke,1082.0,6.9865664594064265,20,easy to read,29-05-2019 08:58
464,6,recognition,1,13,2,False,Non-designer,sansforgetica,bodder,non-word,Sure not seen,1.0,not seen,blearate,2049.0,7.625107148238901,20,easy to read,29-05-2019 08:58
465,6,recognition,1,14,2,False,Non-designer,sansforgetica,persondants,non-word,Sure seen,1.0,seen,persondants,1812.0,7.502186486602924,20,easy to read,29-05-2019 08:58
466,6,recognition,1,15,2,False,Non-designer,sansforgetica,following,word,Sure seen,0.0,not seen,follow,2920.0,7.979338895262327,20,easy to read,29-05-2019 08:58
467,6,recognition,1,16,2,False,Non-designer,sansforgetica,reating,non-word,Sure seen,1.0,seen,reating,1854.0,7.5251007461257995,20,easy to read,29-05-2019 08:58
468,6,lexical,2,1,2,False,Non-designer,sansforgetica,pigeboy,non-word,Probably word,0.0,,,5588.0,8.628376720376853,10,difficult to read,29-05-2019 08:58
469,6,lexical,2,2,2,False,Non-designer,sansforgetica,shows,word,Sure word,1.0,,,1651.0,7.409136443920128,10,difficult to read,29-05-2019 08:58
470,6,lexical,2,3,2,False,Non-designer,sansforgetica,offer,word,Sure word,1.0,,,1090.0,6.9939329752231885,10,difficult to read,29-05-2019 08:58
471,6,lexical,2,4,2,False,Non-designer,sansforgetica,railts,non-word,Probably non-word,1.0,,,2789.0,7.933438387627488,10,difficult to read,29-05-2019 08:58
472,6,lexical,2,5,2,False,Non-designer,sansforgetica,nommidated,non-word,Probably non-word,1.0,,,2459.95,7.807896303516596,10,difficult to read,29-05-2019 08:58
473,6,lexical,2,6,2,False,Non-designer,sansforgetica,amonged,non-word,Probably non-word,1.0,,,1785.0,7.487173694213738,10,difficult to read,29-05-2019 08:58
474,6,lexical,2,7,2,False,Non-designer,sansforgetica,ninished,non-word,Sure non-word,1.0,,,3172.0,8.062117582754741,10,difficult to read,29-05-2019 08:58
475,6,lexical,2,8,2,False,Non-designer,sansforgetica,trouble,word,Sure word,1.0,,,1255.0,7.134890851565884,10,difficult to read,29-05-2019 08:58
476,6,lexical,2,9,2,False,Non-designer,sansforgetica,indesphant,non-word,Probably non-word,1.0,,,4837.0,8.484049972822984,10,difficult to read,29-05-2019 08:58
477,6,lexical,2,10,2,False,Non-designer,sansforgetica,books,word,Sure word,1.0,,,1260.0,7.138866999945524,10,difficult to read,29-05-2019 08:58
478,6,lexical,2,11,2,False,Non-designer,sansforgetica,misher,non-word,Probably non-word,1.0,,,3498.0,8.159946655578548,10,difficult to read,29-05-2019 08:58
479,6,lexical,2,12,2,False,Non-designer,sansforgetica,fingers,word,Sure word,1.0,,,1247.0,7.1284959456800365,10,difficult to read,29-05-2019 08:58
480,6,lexical,2,13,2,False,Non-designer,sansforgetica,without,word,Sure word,1.0,,,1141.0,7.039660349862076,10,difficult to read,29-05-2019 08:58
481,6,lexical,2,14,2,False,Non-designer,sansforgetica,rules,word,Sure word,1.0,,,1714.0,7.4465850991577245,10,difficult to read,29-05-2019 08:58
482,6,lexical,2,15,2,False,Non-designer,sansforgetica,likely,word,Sure word,1.0,,,1068.0,6.9735430195201396,10,difficult to read,29-05-2019 08:58
483,6,lexical,2,16,2,False,Non-designer,sansforgetica,section,word,Sure word,1.0,,,1085.0,6.989335265974559,10,difficult to read,29-05-2019 08:58
484,6,lexical,2,17,2,False,Non-designer,sansforgetica,machases,non-word,Sure non-word,1.0,,,2166.0,7.680637427560936,10,difficult to read,29-05-2019 08:58
485,6,lexical,2,18,2,False,Non-designer,sansforgetica,partnestion,non-word,Probably non-word,1.0,,,2846.0,7.953669778649798,10,difficult to read,29-05-2019 08:58
486,6,lexical,2,19,2,False,Non-designer,sansforgetica,braven,non-word,Probably word,0.0,,,3426.0,8.139148678884066,10,difficult to read,29-05-2019 08:58
487,6,lexical,2,20,2,False,Non-designer,sansforgetica,leading,word,Sure word,1.0,,,1055.0,6.961296045910168,10,difficult to read,29-05-2019 08:58
488,6,recognition,2,1,2,False,Non-designer,arial,leading,word,Sure seen,1.0,seen,leading,3152.0,8.055792450977771,10,difficult to read,29-05-2019 08:58
489,6,recognition,2,2,2,False,Non-designer,arial,mixting,non-word,Probably not seen,1.0,not seen,misher,1840.0,7.517520850603031,10,difficult to read,29-05-2019 08:58
490,6,recognition,2,3,2,False,Non-designer,arial,partnestion,non-word,Sure seen,1.0,seen,partnestion,1506.0,7.317212408359839,10,difficult to read,29-05-2019 08:58
491,6,recognition,2,4,2,False,Non-designer,arial,machases,non-word,Sure not seen,0.0,seen,machases,2024.0,7.6128310304073565,10,difficult to read,29-05-2019 08:58
492,6,recognition,2,5,2,False,Non-designer,arial,trust,word,Probably not seen,1.0,not seen,trouble,2158.0,7.67693714581808,10,difficult to read,29-05-2019 08:58
493,6,recognition,2,6,2,False,Non-designer,arial,amonged,non-word,Probably not seen,0.0,seen,amonged,2491.0,7.820439515262182,10,difficult to read,29-05-2019 08:58
494,6,recognition,2,7,2,False,Non-designer,arial,section,word,Sure seen,1.0,seen,section,1455.0,7.282761179605592,10,difficult to read,29-05-2019 08:58
495,6,recognition,2,8,2,False,Non-designer,arial,offer,word,Sure seen,1.0,seen,offer,1571.0,7.359467638255621,10,difficult to read,29-05-2019 08:58
496,6,recognition,2,9,2,False,Non-designer,arial,nobit,non-word,Sure not seen,1.0,not seen,ninished,2669.0,7.889459149404523,10,difficult to read,29-05-2019 08:58
497,6,recognition,2,10,2,False,Non-designer,arial,rules,word,Sure seen,1.0,seen,rules,2009.0,7.605392364814935,10,difficult to read,29-05-2019 08:58
498,6,recognition,2,11,2,False,Non-designer,arial,nontrantion,non-word,Sure not seen,1.0,not seen,nommidated,3492.0,8.158229916959494,10,difficult to read,29-05-2019 08:58
499,6,recognition,2,12,2,False,Non-designer,arial,railts,non-word,Probably not seen,0.0,seen,railts,2402.0,7.784057002639929,10,difficult to read,29-05-2019 08:58
500,6,recognition,2,13,2,False,Non-designer,arial,sides,word,Sure seen,0.0,not seen,shows,1339.0,7.199678345691173,10,difficult to read,29-05-2019 08:58
501,6,recognition,2,14,2,False,Non-designer,arial,bottle,word,Sure not seen,1.0,not seen,books,1821.0,7.507141079727608,10,difficult to read,29-05-2019 08:58
502,6,recognition,2,15,2,False,Non-designer,arial,finished,word,Sure seen,0.0,not seen,fingers,1197.0,7.087573705557972,10,difficult to read,29-05-2019 08:58
503,6,recognition,2,16,2,False,Non-designer,arial,breakdous,non-word,Probably not seen,1.0,not seen,braven,2669.0,7.889459149404523,10,difficult to read,29-05-2019 08:58
504,7,lexical,1,1,2,True,Non-designer,arial,matragants,non-word,Probably non-word,1.0,,,45196.0,10.718763866329137,36,very easy to read,27-05-2019 11:13
505,7,lexical,1,2,2,True,Non-designer,arial,basic,word,Sure word,1.0,,,6970.0,8.849370503754571,36,very easy to read,27-05-2019 11:13
506,7,lexical,1,3,2,True,Non-designer,arial,conferation,non-word,Probably non-word,1.0,,,28597.0,10.261057096201172,36,very easy to read,27-05-2019 11:13
507,7,lexical,1,4,2,True,Non-designer,arial,explained,word,Sure word,1.0,,,5392.0,8.592671652592143,36,very easy to read,27-05-2019 11:13
508,7,lexical,1,5,2,True,Non-designer,arial,female,word,Sure word,1.0,,,3049.0,8.022568946988255,36,very easy to read,27-05-2019 11:13
509,7,lexical,1,6,2,True,Non-designer,arial,saying,word,Sure word,1.0,,,3929.0,8.27614021955846,36,very easy to read,27-05-2019 11:13
510,7,lexical,1,7,2,True,Non-designer,arial,mostly,word,Sure word,1.0,,,2383.0,7.776115477098743,36,very easy to read,27-05-2019 11:13
511,7,lexical,1,8,2,True,Non-designer,arial,flight,word,Sure word,1.0,,,2250.0,7.718685495198466,36,very easy to read,27-05-2019 11:13
512,7,lexical,1,9,2,True,Non-designer,arial,shouction,non-word,Probably non-word,1.0,,,30115.0,10.312778665477822,36,very easy to read,27-05-2019 11:13
513,7,lexical,1,10,2,True,Non-designer,arial,threat,word,Sure word,1.0,,,3481.0,8.15507488781144,36,very easy to read,27-05-2019 11:13
514,7,lexical,1,11,2,True,Non-designer,arial,aggreciled,non-word,Probably non-word,1.0,,,3289.0,8.098338846189058,36,very easy to read,27-05-2019 11:13
515,7,lexical,1,12,2,True,Non-designer,arial,rectined,non-word,Probably non-word,1.0,,,34689.0,10.454177912797071,36,very easy to read,27-05-2019 11:13
516,7,lexical,1,13,2,True,Non-designer,arial,melatisted,non-word,Probably non-word,1.0,,,16370.0,9.703205670365179,36,very easy to read,27-05-2019 11:13
517,7,lexical,1,14,2,True,Non-designer,arial,trads,non-word,Sure word,0.0,,,2260.0,7.72312009226633,36,very easy to read,27-05-2019 11:13
518,7,lexical,1,15,2,True,Non-designer,arial,formal,word,Sure word,1.0,,,1806.0,7.498869733976932,36,very easy to read,27-05-2019 11:13
519,7,lexical,1,16,2,True,Non-designer,arial,docionating,non-word,Probably word,0.0,,,36363.0,10.50130705313862,36,very easy to read,27-05-2019 11:13
520,7,lexical,1,17,2,True,Non-designer,arial,feelings,word,Sure word,1.0,,,1850.0,7.52294091807237,36,very easy to read,27-05-2019 11:13
521,7,lexical,1,18,2,True,Non-designer,arial,potervation,non-word,Probably non-word,1.0,,,52881.0,10.875799385088065,36,very easy to read,27-05-2019 11:13
522,7,lexical,1,19,2,True,Non-designer,arial,still,word,Sure word,1.0,,,1609.0,7.383368146992383,36,very easy to read,27-05-2019 11:13
523,7,lexical,1,20,2,True,Non-designer,arial,trambling,non-word,Sure word,0.0,,,1863.0,7.529943370601589,36,very easy to read,27-05-2019 11:13
524,7,recognition,1,1,2,True,Non-designer,sansforgetica,shouction,non-word,Sure seen,1.0,seen,shouction,4174.21875,8.336682494026245,36,very easy to read,27-05-2019 11:13
525,7,recognition,1,2,2,True,Non-designer,sansforgetica,conferical,non-word,Probably not seen,1.0,not seen,conferation,6867.0,8.834482608620679,36,very easy to read,27-05-2019 11:13
526,7,recognition,1,3,2,True,Non-designer,sansforgetica,female,word,Sure seen,1.0,seen,female,2548.0,7.843064016692054,36,very easy to read,27-05-2019 11:13
527,7,recognition,1,4,2,True,Non-designer,sansforgetica,matragants,non-word,Sure seen,1.0,seen,matragants,2124.0,7.6610563823618305,36,very easy to read,27-05-2019 11:13
528,7,recognition,1,5,2,True,Non-designer,sansforgetica,saying,word,Sure seen,1.0,seen,saying,1659.0,7.413970290190443,36,very easy to read,27-05-2019 11:13
529,7,recognition,1,6,2,True,Non-designer,sansforgetica,trambling,non-word,Sure seen,1.0,seen,trambling,1949.0,7.5750716995075615,36,very easy to read,27-05-2019 11:13
530,7,recognition,1,7,2,True,Non-designer,sansforgetica,potervation,non-word,Sure seen,1.0,seen,potervation,7137.0,8.873047798971069,36,very easy to read,27-05-2019 11:13
531,7,recognition,1,8,2,True,Non-designer,sansforgetica,basic,word,Probably not seen,0.0,seen,basic,5050.0,8.527143522269405,36,very easy to read,27-05-2019 11:13
532,7,recognition,1,9,2,True,Non-designer,sansforgetica,floor,word,Sure not seen,1.0,not seen,flight,4475.0,8.406261630708956,36,very easy to read,27-05-2019 11:13
533,7,recognition,1,10,2,True,Non-designer,sansforgetica,refectuning,non-word,Probably not seen,1.0,not seen,rectined,6774.0,8.820847033377717,36,very easy to read,27-05-2019 11:13
534,7,recognition,1,11,2,True,Non-designer,sansforgetica,formed,word,Probably not seen,1.0,not seen,formal,3313.0,8.105609402299896,36,very easy to read,27-05-2019 11:13
535,7,recognition,1,12,2,True,Non-designer,sansforgetica,doweract,non-word,Sure not seen,1.0,not seen,docionating,2043.0,7.622174594817622,36,very easy to read,27-05-2019 11:13
536,7,recognition,1,13,2,True,Non-designer,sansforgetica,airalow,non-word,Sure not seen,1.0,not seen,aggreciled,2526.0,7.834392302910435,36,very easy to read,27-05-2019 11:13
537,7,recognition,1,14,2,True,Non-designer,sansforgetica,feels,word,Sure seen,0.0,not seen,feelings,1818.0,7.505492274737423,36,very easy to read,27-05-2019 11:13
538,7,recognition,1,15,2,True,Non-designer,sansforgetica,explained,word,Sure seen,1.0,seen,explained,1533.0,7.334981878871814,36,very easy to read,27-05-2019 11:13
539,7,recognition,1,16,2,True,Non-designer,sansforgetica,three,word,Sure not seen,1.0,not seen,threat,2450.0,7.8038433035387715,36,very easy to read,27-05-2019 11:13
540,7,lexical,2,1,2,True,Non-designer,sansforgetica,starned,non-word,Probably non-word,1.0,,,42790.0,10.664059709410862,23,difficult to read,27-05-2019 11:13
541,7,lexical,2,2,2,True,Non-designer,sansforgetica,cheir,non-word,Probably non-word,1.0,,,5945.0,8.690305809124883,23,difficult to read,27-05-2019 11:13
542,7,lexical,2,3,2,True,Non-designer,sansforgetica,farmers,word,Sure word,1.0,,,4437.0,8.39773375137891,23,difficult to read,27-05-2019 11:13
543,7,lexical,2,4,2,True,Non-designer,sansforgetica,oppech,non-word,Probably non-word,1.0,,,23801.0,10.077482875583607,23,difficult to read,27-05-2019 11:13
544,7,lexical,2,5,2,True,Non-designer,sansforgetica,shook,word,Sure word,1.0,,,2393.0,7.780303087908372,23,difficult to read,27-05-2019 11:13
545,7,lexical,2,6,2,True,Non-designer,sansforgetica,airport,word,Sure word,1.0,,,1778.0,7.483244416073849,23,difficult to read,27-05-2019 11:13
546,7,lexical,2,7,2,True,Non-designer,sansforgetica,editising,non-word,Probably non-word,1.0,,,7299.0,8.895492631451633,23,difficult to read,27-05-2019 11:13
547,7,lexical,2,8,2,True,Non-designer,sansforgetica,nodded,word,Probably word,1.0,,,8630.0,9.062999784077473,23,difficult to read,27-05-2019 11:13
548,7,lexical,2,9,2,True,Non-designer,sansforgetica,terms,word,Sure word,1.0,,,3039.0,8.019283792916793,23,difficult to read,27-05-2019 11:13
549,7,lexical,2,10,2,True,Non-designer,sansforgetica,remain,word,Sure word,1.0,,,1750.0,7.467371066917559,23,difficult to read,27-05-2019 11:13
550,7,lexical,2,11,2,True,Non-designer,sansforgetica,material,word,Sure word,1.0,,,1700.0,7.438383530044308,23,difficult to read,27-05-2019 11:13
551,7,lexical,2,12,2,True,Non-designer,sansforgetica,cloature,non-word,Probably non-word,1.0,,,23649.0,10.071076109728018,23,difficult to read,27-05-2019 11:13
552,7,lexical,2,13,2,True,Non-designer,sansforgetica,courch,non-word,Probably non-word,1.0,,,18234.0,9.811043262144848,23,difficult to read,27-05-2019 11:13
553,7,lexical,2,14,2,True,Non-designer,sansforgetica,sometions,non-word,Probably non-word,1.0,,,4601.0,8.434028950155469,23,difficult to read,27-05-2019 11:13
554,7,lexical,2,15,2,True,Non-designer,sansforgetica,cleep,non-word,Sure word,0.0,,,15765.0,9.665547571979161,23,difficult to read,27-05-2019 11:13
555,7,lexical,2,16,2,True,Non-designer,sansforgetica,rivies,non-word,Probably non-word,1.0,,,20365.0,9.921573020082512,23,difficult to read,27-05-2019 11:13
556,7,lexical,2,17,2,True,Non-designer,sansforgetica,months,word,Sure word,1.0,,,3505.0,8.16194579946869,23,difficult to read,27-05-2019 11:13
557,7,lexical,2,18,2,True,Non-designer,sansforgetica,means,word,Sure word,1.0,,,1482.0,7.301147805856032,23,difficult to read,27-05-2019 11:13
558,7,lexical,2,19,2,True,Non-designer,sansforgetica,computer,word,Sure word,1.0,,,1483.0,7.301822342137933,23,difficult to read,27-05-2019 11:13
559,7,lexical,2,20,2,True,Non-designer,sansforgetica,pritialing,non-word,Sure non-word,1.0,,,29751.0,10.300618023854234,23,difficult to read,27-05-2019 11:13
560,7,recognition,2,1,2,True,Non-designer,arial,cleep,non-word,Sure seen,1.0,seen,cleep,7322.0,8.898638793680181,23,difficult to read,27-05-2019 11:13
561,7,recognition,2,2,2,True,Non-designer,arial,proception,non-word,Probably not seen,1.0,not seen,pritialing,5789.0,8.663714844079005,23,difficult to read,27-05-2019 11:13
562,7,recognition,2,3,2,True,Non-designer,arial,concern,word,Probably not seen,1.0,not seen,computer,2576.0,7.853993087224244,23,difficult to read,27-05-2019 11:13
563,7,recognition,2,4,2,True,Non-designer,arial,meant,word,Probably not seen,1.0,not seen,means,5649.0,8.639233817325263,23,difficult to read,27-05-2019 11:13
564,7,recognition,2,5,2,True,Non-designer,arial,eigagement,non-word,Sure not seen,1.0,not seen,editising,2318.0,7.748460023899697,23,difficult to read,27-05-2019 11:13
565,7,recognition,2,6,2,True,Non-designer,arial,cloature,non-word,Sure seen,1.0,seen,cloature,4074.0,8.31238059678675,23,difficult to read,27-05-2019 11:13
566,7,recognition,2,7,2,True,Non-designer,arial,alive,word,Sure not seen,1.0,not seen,airport,5130.0,8.542860938164814,23,difficult to read,27-05-2019 11:13
567,7,recognition,2,8,2,True,Non-designer,arial,shook,word,Sure not seen,0.0,seen,shook,8184.0,9.009936307631463,23,difficult to read,27-05-2019 11:13
568,7,recognition,2,9,2,True,Non-designer,arial,courch,non-word,Sure seen,1.0,seen,courch,6716.0,8.812248018197431,23,difficult to read,27-05-2019 11:13
569,7,recognition,2,10,2,True,Non-designer,arial,oppech,non-word,Sure seen,1.0,seen,oppech,1968.0,7.5847730776121995,23,difficult to read,27-05-2019 11:13
570,7,recognition,2,11,2,True,Non-designer,arial,rivil,non-word,Probably not seen,1.0,not seen,rivies,3777.0,8.236685322712457,23,difficult to read,27-05-2019 11:13
571,7,recognition,2,12,2,True,Non-designer,arial,farmers,word,Sure seen,1.0,seen,farmers,1469.0,7.292337176173878,23,difficult to read,27-05-2019 11:13
572,7,recognition,2,13,2,True,Non-designer,arial,steet,non-word,Sure not seen,1.0,not seen,starned,3670.0,8.207946941048617,23,difficult to read,27-05-2019 11:13
573,7,recognition,2,14,2,True,Non-designer,arial,matter,word,Probably not seen,1.0,not seen,material,3130.0,8.048788283534199,23,difficult to read,27-05-2019 11:13
574,7,recognition,2,15,2,True,Non-designer,arial,nodded,word,Sure seen,1.0,seen,nodded,1920.0,7.560080465021827,23,difficult to read,27-05-2019 11:13
575,7,recognition,2,16,2,True,Non-designer,arial,months,word,Sure seen,1.0,seen,months,1949.0,7.5750716995075615,23,difficult to read,27-05-2019 11:13
576,8,lexical,1,1,2,True,Non-designer,arial,wationation,non-word,Sure non-word,1.0,,,3347.425,8.115946672534651,65,very easy to read,26-05-2019 21:40
577,8,lexical,1,2,2,True,Non-designer,arial,wetween,non-word,Sure non-word,1.0,,,5720.0,8.651724084373843,65,very easy to read,26-05-2019 21:40
578,8,lexical,1,3,2,True,Non-designer,arial,impreasive,non-word,Sure non-word,1.0,,,3640.0,8.199738960630786,65,very easy to read,26-05-2019 21:40
579,8,lexical,1,4,2,True,Non-designer,arial,darrity,non-word,Sure non-word,1.0,,,2793.0,7.934871565945178,65,very easy to read,26-05-2019 21:40
580,8,lexical,1,5,2,True,Non-designer,arial,approach,word,Sure word,1.0,,,2821.0,7.944846711001996,65,very easy to read,26-05-2019 21:40
581,8,lexical,1,6,2,True,Non-designer,arial,aroult,non-word,Probably non-word,1.0,,,2474.0,7.813591552952433,65,very easy to read,26-05-2019 21:40
582,8,lexical,1,7,2,True,Non-designer,arial,liked,word,Sure word,1.0,,,2490.0,7.820037989458753,65,very easy to read,26-05-2019 21:40
583,8,lexical,1,8,2,True,Non-designer,arial,behaviour,word,Sure word,1.0,,,2518.0,7.8312202146042935,65,very easy to read,26-05-2019 21:40
584,8,lexical,1,9,2,True,Non-designer,arial,explanented,non-word,Probably non-word,1.0,,,4877.0,8.492285555710053,65,very easy to read,26-05-2019 21:40
585,8,lexical,1,10,2,True,Non-designer,arial,health,word,Sure word,1.0,,,2123.0,7.660585461703256,65,very easy to read,26-05-2019 21:40
586,8,lexical,1,11,2,True,Non-designer,arial,grandials,non-word,Probably word,0.0,,,5016.0,8.520388082312756,65,very easy to read,26-05-2019 21:40
587,8,lexical,1,12,2,True,Non-designer,arial,shook,word,Sure word,1.0,,,2510.0,7.828038032125829,65,very easy to read,26-05-2019 21:40
588,8,lexical,1,13,2,True,Non-designer,arial,tempriation,non-word,Probably non-word,1.0,,,3813.0,8.246171559857563,65,very easy to read,26-05-2019 21:40
589,8,lexical,1,14,2,True,Non-designer,arial,starge,non-word,Probably non-word,1.0,,,2746.0,7.917900586327916,65,very easy to read,26-05-2019 21:40
590,8,lexical,1,15,2,True,Non-designer,arial,middle,word,Sure word,1.0,,,1989.0,7.595387278853972,65,very easy to read,26-05-2019 21:40
591,8,lexical,1,16,2,True,Non-designer,arial,campaign,word,Sure word,1.0,,,2189.0,7.691200097522862,65,very easy to read,26-05-2019 21:40
592,8,lexical,1,17,2,True,Non-designer,arial,preakfase,non-word,Sure non-word,1.0,,,3521.0,8.166500319155054,65,very easy to read,26-05-2019 21:40
593,8,lexical,1,18,2,True,Non-designer,arial,light,word,Sure word,1.0,,,1595.0,7.374629015218946,65,very easy to read,26-05-2019 21:40
594,8,lexical,1,19,2,True,Non-designer,arial,leading,word,Sure word,1.0,,,3262.0,8.09009578318096,65,very easy to read,26-05-2019 21:40
595,8,lexical,1,20,2,True,Non-designer,arial,department,word,Sure word,1.0,,,1977.0,7.589335823170616,65,very easy to read,26-05-2019 21:40
596,8,recognition,1,1,2,True,Non-designer,sansforgetica,leading,word,Sure seen,1.0,seen,leading,2340.3125,7.7580397464436865,65,very easy to read,26-05-2019 21:40
597,8,recognition,1,2,2,True,Non-designer,sansforgetica,might,word,Sure not seen,1.0,not seen,middle,3422.0,8.137980454452139,65,very easy to read,26-05-2019 21:40
598,8,recognition,1,3,2,True,Non-designer,sansforgetica,aroult,non-word,Sure seen,1.0,seen,aroult,2278.0,7.731053144007128,65,very easy to read,26-05-2019 21:40
599,8,recognition,1,4,2,True,Non-designer,sansforgetica,liked,word,Sure seen,1.0,seen,liked,1886.0,7.542213463193402,65,very easy to read,26-05-2019 21:40
600,8,recognition,1,5,2,True,Non-designer,sansforgetica,whaiming,non-word,Probably not seen,1.0,not seen,wetween,4238.0,8.351846738828245,65,very easy to read,26-05-2019 21:40
601,8,recognition,1,6,2,True,Non-designer,sansforgetica,daymerly,non-word,Sure not seen,1.0,not seen,darrity,2080.0,7.640123172695364,65,very easy to read,26-05-2019 21:40
602,8,recognition,1,7,2,True,Non-designer,sansforgetica,tempriation,non-word,Sure seen,1.0,seen,tempriation,2057.0,7.629003889652957,65,very easy to read,26-05-2019 21:40
603,8,recognition,1,8,2,True,Non-designer,sansforgetica,described,word,Sure not seen,1.0,not seen,department,2135.0,7.666221925662725,65,very easy to read,26-05-2019 21:40
604,8,recognition,1,9,2,True,Non-designer,sansforgetica,behaviour,word,Sure seen,1.0,seen,behaviour,1764.0,7.475339236566738,65,very easy to read,26-05-2019 21:40
605,8,recognition,1,10,2,True,Non-designer,sansforgetica,explitition,non-word,Sure seen,0.0,not seen,explanented,2440.0,7.799753318287247,65,very easy to read,26-05-2019 21:40
606,8,recognition,1,11,2,True,Non-designer,sansforgetica,granspors,non-word,Sure not seen,1.0,not seen,grandials,2140.0,7.668561108015897,65,very easy to read,26-05-2019 21:40
607,8,recognition,1,12,2,True,Non-designer,sansforgetica,starge,non-word,Sure seen,1.0,seen,starge,1995.0,7.598399329323964,65,very easy to read,26-05-2019 21:40
608,8,recognition,1,13,2,True,Non-designer,sansforgetica,wationation,non-word,Sure seen,1.0,seen,wationation,1829.0,7.511524648390867,65,very easy to read,26-05-2019 21:40
609,8,recognition,1,14,2,True,Non-designer,sansforgetica,health,word,Sure seen,1.0,seen,health,1968.0,7.5847730776121995,65,very easy to read,26-05-2019 21:40
610,8,recognition,1,15,2,True,Non-designer,sansforgetica,library,word,Sure not seen,1.0,not seen,light,2076.0,7.638198244285777,65,very easy to read,26-05-2019 21:40
611,8,recognition,1,16,2,True,Non-designer,sansforgetica,cancer,word,Sure not seen,1.0,not seen,campaign,1635.0,7.399398083331354,65,very easy to read,26-05-2019 21:40
612,8,lexical,2,1,2,True,Non-designer,sansforgetica,impression,word,Sure word,1.0,,,6179.0,8.72891172506098,70,very easy to read,26-05-2019 21:40
613,8,lexical,2,2,2,True,Non-designer,sansforgetica,foreass,non-word,Probably non-word,1.0,,,3347.425,8.115946672534651,70,very easy to read,26-05-2019 21:40
614,8,lexical,2,3,2,True,Non-designer,sansforgetica,spent,word,Sure word,1.0,,,1785.0,7.487173694213738,70,very easy to read,26-05-2019 21:40
615,8,lexical,2,4,2,True,Non-designer,sansforgetica,apponstedly,non-word,Sure non-word,1.0,,,4813.0,8.479075869303111,70,very easy to read,26-05-2019 21:40
616,8,lexical,2,5,2,True,Non-designer,sansforgetica,feelings,word,Sure word,1.0,,,2164.0,7.679713639966372,70,very easy to read,26-05-2019 21:40
617,8,lexical,2,6,2,True,Non-designer,sansforgetica,aniond,non-word,Probably non-word,1.0,,,3271.0,8.092851027538384,70,very easy to read,26-05-2019 21:40
618,8,lexical,2,7,2,True,Non-designer,sansforgetica,claim,word,Sure word,1.0,,,1795.0,7.492760300922379,70,very easy to read,26-05-2019 21:40
619,8,lexical,2,8,2,True,Non-designer,sansforgetica,compritable,non-word,Probably non-word,1.0,,,5462.0,8.605570302033652,70,very easy to read,26-05-2019 21:40
620,8,lexical,2,9,2,True,Non-designer,sansforgetica,opened,word,Sure word,1.0,,,1956.0,7.578656850594762,70,very easy to read,26-05-2019 21:40
621,8,lexical,2,10,2,True,Non-designer,sansforgetica,happening,word,Sure word,1.0,,,1541.0,7.340186835320115,70,very easy to read,26-05-2019 21:40
622,8,lexical,2,11,2,True,Non-designer,sansforgetica,restratians,non-word,Probably non-word,1.0,,,5450.0,8.60337088765729,70,very easy to read,26-05-2019 21:40
623,8,lexical,2,12,2,True,Non-designer,sansforgetica,traditional,word,Sure word,1.0,,,1868.0,7.532623618788787,70,very easy to read,26-05-2019 21:40
624,8,lexical,2,13,2,True,Non-designer,sansforgetica,pleasure,word,Sure word,1.0,,,1681.0,7.427144133408617,70,very easy to read,26-05-2019 21:40
625,8,lexical,2,14,2,True,Non-designer,sansforgetica,legravement,non-word,Sure non-word,1.0,,,3513.0,8.164225652265827,70,very easy to read,26-05-2019 21:40
626,8,lexical,2,15,2,True,Non-designer,sansforgetica,dinded,non-word,Probably non-word,1.0,,,4065.0,8.310169021981912,70,very easy to read,26-05-2019 21:40
627,8,lexical,2,16,2,True,Non-designer,sansforgetica,commission,word,Sure word,1.0,,,2245.0,7.716460800176356,70,very easy to read,26-05-2019 21:40
628,8,lexical,2,17,2,True,Non-designer,sansforgetica,adjuntives,non-word,Probably non-word,1.0,,,4767.0,8.469472455204826,70,very easy to read,26-05-2019 21:40
629,8,lexical,2,18,2,True,Non-designer,sansforgetica,gallowned,non-word,Probably non-word,1.0,,,3789.0,8.239857411018601,70,very easy to read,26-05-2019 21:40
630,8,lexical,2,19,2,True,Non-designer,sansforgetica,freasional,non-word,Probably non-word,1.0,,,2125.0,7.661527081358518,70,very easy to read,26-05-2019 21:40
631,8,lexical,2,20,2,True,Non-designer,sansforgetica,leader,word,Sure word,1.0,,,1674.0,7.422971251049421,70,very easy to read,26-05-2019 21:40
632,8,recognition,2,1,2,True,Non-designer,arial,compritable,non-word,Sure seen,1.0,seen,compritable,2340.3125,7.7580397464436865,70,very easy to read,26-05-2019 21:40
633,8,recognition,2,2,2,True,Non-designer,arial,anotter,non-word,Sure not seen,1.0,not seen,aniond,2855.0,7.956827122090111,70,very easy to read,26-05-2019 21:40
634,8,recognition,2,3,2,True,Non-designer,arial,apponstedly,non-word,Sure seen,1.0,seen,apponstedly,2123.0,7.660585461703256,70,very easy to read,26-05-2019 21:40
635,8,recognition,2,4,2,True,Non-designer,arial,restruction,non-word,Sure not seen,1.0,not seen,restratians,3256.0,8.088254727122429,70,very easy to read,26-05-2019 21:40
636,8,recognition,2,5,2,True,Non-designer,arial,commission,word,Sure seen,1.0,seen,commission,1456.0,7.2834482287566304,70,very easy to read,26-05-2019 21:40
637,8,recognition,2,6,2,True,Non-designer,arial,included,word,Sure seen,0.0,not seen,impression,2276.0,7.730174795246223,70,very easy to read,26-05-2019 21:40
638,8,recognition,2,7,2,True,Non-designer,arial,legravement,non-word,Sure seen,1.0,seen,legravement,1709.0,7.443663683115591,70,very easy to read,26-05-2019 21:40
639,8,recognition,2,8,2,True,Non-designer,arial,foreass,non-word,Sure seen,1.0,seen,foreass,1602.0,7.379008127628304,70,very easy to read,26-05-2019 21:40
640,8,recognition,2,9,2,True,Non-designer,arial,spirit,word,Sure not seen,1.0,not seen,spent,1786.0,7.487733761436443,70,very easy to read,26-05-2019 21:40
641,8,recognition,2,10,2,True,Non-designer,arial,frighboure,non-word,Sure not seen,1.0,not seen,freasional,2267.0,7.726212650507529,70,very easy to read,26-05-2019 21:40
642,8,recognition,2,11,2,True,Non-designer,arial,garance,non-word,Sure not seen,1.0,not seen,gallowned,1634.0,7.3987862754199485,70,very easy to read,26-05-2019 21:40
643,8,recognition,2,12,2,True,Non-designer,arial,happening,word,Sure seen,1.0,seen,happening,1485.0,7.3031700512368,70,very easy to read,26-05-2019 21:40
644,8,recognition,2,13,2,True,Non-designer,arial,leader,word,Sure seen,1.0,seen,leader,1475.0,7.296413268773919,70,very easy to read,26-05-2019 21:40
645,8,recognition,2,14,2,True,Non-designer,arial,pleasure,word,Sure seen,1.0,seen,pleasure,1842.0,7.518607216815253,70,very easy to read,26-05-2019 21:40
646,8,recognition,2,15,2,True,Non-designer,arial,opening,word,Sure not seen,1.0,not seen,opened,1483.0,7.301822342137933,70,very easy to read,26-05-2019 21:40
647,8,recognition,2,16,2,True,Non-designer,arial,traffic,word,Sure not seen,1.0,not seen,traditional,1495.0,7.309881485824786,70,very easy to read,26-05-2019 21:40
648,9,lexical,1,1,2,True,Non-designer,arial,possiols,non-word,Probably non-word,1.0,,,6965.0,8.848652886213905,64,very easy to read,26-05-2019 21:07
649,9,lexical,1,2,2,True,Non-designer,arial,disculates,non-word,Probably word,0.0,,,6518.0,8.782322859397508,64,very easy to read,26-05-2019 21:07
650,9,lexical,1,3,2,True,Non-designer,arial,national,word,Sure word,1.0,,,4087.0,8.315566483564277,64,very easy to read,26-05-2019 21:07
651,9,lexical,1,4,2,True,Non-designer,arial,welfare,word,Sure word,1.0,,,3230.0,8.080237416216702,64,very easy to read,26-05-2019 21:07
652,9,lexical,1,5,2,True,Non-designer,arial,furning,non-word,Probably non-word,1.0,,,6826.0,8.828494129466653,64,very easy to read,26-05-2019 21:07
653,9,lexical,1,6,2,True,Non-designer,arial,brummitic,non-word,Probably non-word,1.0,,,5687.0,8.645938147306799,64,very easy to read,26-05-2019 21:07
654,9,lexical,1,7,2,True,Non-designer,arial,extremely,word,Sure word,1.0,,,3982.0,8.289539484624141,64,very easy to read,26-05-2019 21:07
655,9,lexical,1,8,2,True,Non-designer,arial,hanposed,non-word,Probably non-word,1.0,,,6402.0,8.764365720529808,64,very easy to read,26-05-2019 21:07
656,9,lexical,1,9,2,True,Non-designer,arial,advice,word,Sure word,1.0,,,3364.0,8.120886021092838,64,very easy to read,26-05-2019 21:07
