,Study ID,Participant ID,Native,Designer,Test ID,Test type,Trial ID,Font,Sample,Category,Response,Correct,Seen,Foil,Response time,JoM,JoL,Date
0,0.0,0.0,True,Non-designer,1,lexical,1,sansforgetica,neeld,non-word,Sure word,0.0,,,2744,56,very easy to read,25-03-2019 19:37
1,0.0,0.0,True,Non-designer,1,lexical,2,sansforgetica,inverstand,non-word,Sure word,0.0,,,841,56,very easy to read,25-03-2019 19:37
2,0.0,0.0,True,Non-designer,1,lexical,3,sansforgetica,sovess,non-word,Sure word,0.0,,,527,56,very easy to read,25-03-2019 19:37
3,0.0,0.0,True,Non-designer,1,lexical,4,sansforgetica,guilty,word,Sure word,1.0,,,536,56,very easy to read,25-03-2019 19:37
4,0.0,0.0,True,Non-designer,1,lexical,5,sansforgetica,actions,word,Sure word,1.0,,,511,56,very easy to read,25-03-2019 19:37
5,0.0,0.0,True,Non-designer,1,lexical,6,sansforgetica,earth,word,Sure word,1.0,,,481,56,very easy to read,25-03-2019 19:37
6,0.0,0.0,True,Non-designer,1,lexical,7,sansforgetica,partnestion,non-word,Sure word,0.0,,,504,56,very easy to read,25-03-2019 19:37
7,0.0,0.0,True,Non-designer,1,lexical,8,sansforgetica,surcenters,non-word,Sure word,0.0,,,512,56,very easy to read,25-03-2019 19:37
8,0.0,0.0,True,Non-designer,1,lexical,9,sansforgetica,status,word,Sure word,1.0,,,496,56,very easy to read,25-03-2019 19:37
9,0.0,0.0,True,Non-designer,1,lexical,10,sansforgetica,miney,non-word,Sure word,0.0,,,489,56,very easy to read,25-03-2019 19:37
10,0.0,0.0,True,Non-designer,1,lexical,11,sansforgetica,calculgical,non-word,Sure word,0.0,,,327,56,very easy to read,25-03-2019 19:37
11,0.0,0.0,True,Non-designer,1,lexical,12,sansforgetica,women,word,Sure word,1.0,,,554,56,very easy to read,25-03-2019 19:37
12,0.0,0.0,True,Non-designer,1,lexical,13,sansforgetica,parent,word,Sure word,1.0,,,589,56,very easy to read,25-03-2019 19:37
13,0.0,0.0,True,Non-designer,1,lexical,14,sansforgetica,stock,word,Sure word,1.0,,,522,56,very easy to read,25-03-2019 19:37
14,0.0,0.0,True,Non-designer,1,lexical,15,sansforgetica,authorities,word,Sure word,1.0,,,471,56,very easy to read,25-03-2019 19:37
15,0.0,0.0,True,Non-designer,1,lexical,16,sansforgetica,cerving,non-word,Sure word,0.0,,,520,56,very easy to read,25-03-2019 19:37
16,0.0,0.0,True,Non-designer,1,lexical,17,sansforgetica,enreloping,non-word,Sure word,0.0,,,1345,56,very easy to read,25-03-2019 19:37
17,0.0,0.0,True,Non-designer,1,lexical,18,sansforgetica,meaning,word,Sure word,1.0,,,535,56,very easy to read,25-03-2019 19:37
18,0.0,0.0,True,Non-designer,1,lexical,19,sansforgetica,minute,word,Sure word,1.0,,,463,56,very easy to read,25-03-2019 19:37
19,0.0,0.0,True,Non-designer,1,lexical,20,sansforgetica,sprairen,non-word,Sure word,0.0,,,378,56,very easy to read,25-03-2019 19:37
20,0.0,0.0,True,Non-designer,1,recognition,1,sansforgetica,easier,word,Sure seen,0.0,not seen,earth,3431,56,very easy to read,25-03-2019 19:37
21,0.0,0.0,True,Non-designer,1,recognition,2,sansforgetica,miney,non-word,Sure seen,1.0,seen,miney,618,56,very easy to read,25-03-2019 19:37
22,0.0,0.0,True,Non-designer,1,recognition,3,sansforgetica,enreloping,non-word,Sure seen,1.0,seen,enreloping,567,56,very easy to read,25-03-2019 19:37
23,0.0,0.0,True,Non-designer,1,recognition,4,sansforgetica,available,word,Sure seen,0.0,not seen,authorities,566,56,very easy to read,25-03-2019 19:37
24,0.0,0.0,True,Non-designer,1,recognition,5,sansforgetica,minute,word,Sure seen,1.0,seen,minute,536,56,very easy to read,25-03-2019 19:37
25,0.0,0.0,True,Non-designer,1,recognition,6,sansforgetica,active,word,Sure seen,0.0,not seen,actions,536,56,very easy to read,25-03-2019 19:37
26,0.0,0.0,True,Non-designer,1,recognition,7,sansforgetica,invironable,non-word,Sure seen,0.0,not seen,inverstand,594,56,very easy to read,25-03-2019 19:37
27,0.0,0.0,True,Non-designer,1,recognition,8,sansforgetica,parent,word,Sure seen,1.0,seen,parent,534,56,very easy to read,25-03-2019 19:37
28,0.0,0.0,True,Non-designer,1,recognition,9,sansforgetica,surcenters,non-word,Sure seen,1.0,seen,surcenters,561,56,very easy to read,25-03-2019 19:37
29,0.0,0.0,True,Non-designer,1,recognition,10,sansforgetica,means,word,Sure seen,0.0,not seen,meaning,527,56,very easy to read,25-03-2019 19:37
30,0.0,0.0,True,Non-designer,1,recognition,11,sansforgetica,sprikelf,non-word,Sure seen,0.0,not seen,sprairen,513,56,very easy to read,25-03-2019 19:37
31,0.0,0.0,True,Non-designer,1,recognition,12,sansforgetica,chaminue,non-word,Sure seen,0.0,not seen,cerving,527,56,very easy to read,25-03-2019 19:37
32,0.0,0.0,True,Non-designer,1,recognition,13,sansforgetica,status,word,Sure seen,1.0,seen,status,561,56,very easy to read,25-03-2019 19:37
33,0.0,0.0,True,Non-designer,1,recognition,14,sansforgetica,partnestion,non-word,Sure seen,1.0,seen,partnestion,567,56,very easy to read,25-03-2019 19:37
34,0.0,0.0,True,Non-designer,1,recognition,15,sansforgetica,guilty,word,Sure seen,1.0,seen,guilty,553,56,very easy to read,25-03-2019 19:37
35,0.0,0.0,True,Non-designer,1,recognition,16,sansforgetica,sovies,non-word,Sure seen,0.0,not seen,sovess,584,56,very easy to read,25-03-2019 19:37
36,0.0,0.0,True,Non-designer,2,lexical,1,inputsans,pattern,word,Sure word,1.0,,,1902,54,easy to read,25-03-2019 19:37
37,0.0,0.0,True,Non-designer,2,lexical,2,inputsans,vally,non-word,Sure word,0.0,,,826,54,easy to read,25-03-2019 19:37
38,0.0,0.0,True,Non-designer,2,lexical,3,inputsans,either,word,Sure word,1.0,,,528,54,easy to read,25-03-2019 19:37
39,0.0,0.0,True,Non-designer,2,lexical,4,inputsans,escape,word,Sure word,1.0,,,375,54,easy to read,25-03-2019 19:37
40,0.0,0.0,True,Non-designer,2,lexical,5,inputsans,masuld,non-word,Sure word,0.0,,,383,54,easy to read,25-03-2019 19:37
41,0.0,0.0,True,Non-designer,2,lexical,6,inputsans,physical,word,Sure word,1.0,,,657,54,easy to read,25-03-2019 19:37
42,0.0,0.0,True,Non-designer,2,lexical,7,inputsans,sountion,non-word,Sure word,0.0,,,603,54,easy to read,25-03-2019 19:37
43,0.0,0.0,True,Non-designer,2,lexical,8,inputsans,start,word,Sure word,1.0,,,501,54,easy to read,25-03-2019 19:37
44,0.0,0.0,True,Non-designer,2,lexical,9,inputsans,cittes,non-word,Sure word,0.0,,,511,54,easy to read,25-03-2019 19:37
45,0.0,0.0,True,Non-designer,2,lexical,10,inputsans,griends,non-word,Sure word,0.0,,,546,54,easy to read,25-03-2019 19:37
46,0.0,0.0,True,Non-designer,2,lexical,11,inputsans,adult,word,Sure word,1.0,,,711,54,easy to read,25-03-2019 19:37
47,0.0,0.0,True,Non-designer,2,lexical,12,inputsans,gatted,non-word,Sure word,0.0,,,849,54,easy to read,25-03-2019 19:37
48,0.0,0.0,True,Non-designer,2,lexical,13,inputsans,arould,non-word,Sure word,0.0,,,600,54,easy to read,25-03-2019 19:37
49,0.0,0.0,True,Non-designer,2,lexical,14,inputsans,appropriate,word,Sure word,1.0,,,831,54,easy to read,25-03-2019 19:37
50,0.0,0.0,True,Non-designer,2,lexical,15,inputsans,benefit,word,Sure word,1.0,,,696,54,easy to read,25-03-2019 19:37
51,0.0,0.0,True,Non-designer,2,lexical,16,inputsans,medical,word,Sure word,1.0,,,609,54,easy to read,25-03-2019 19:37
52,0.0,0.0,True,Non-designer,2,lexical,17,inputsans,pritialing,non-word,Sure word,0.0,,,592,54,easy to read,25-03-2019 19:37
53,0.0,0.0,True,Non-designer,2,lexical,18,inputsans,treselved,non-word,Sure word,0.0,,,640,54,easy to read,25-03-2019 19:37
54,0.0,0.0,True,Non-designer,2,lexical,19,inputsans,uneard,non-word,Sure word,0.0,,,607,54,easy to read,25-03-2019 19:37
55,0.0,0.0,True,Non-designer,2,lexical,20,inputsans,always,word,Sure word,1.0,,,617,54,easy to read,25-03-2019 19:37
56,0.0,0.0,True,Non-designer,2,recognition,1,inputsans,cittes,non-word,Sure seen,1.0,seen,cittes,2631,54,easy to read,25-03-2019 19:37
57,0.0,0.0,True,Non-designer,2,recognition,2,inputsans,statement,word,Sure seen,0.0,not seen,start,591,54,easy to read,25-03-2019 19:37
58,0.0,0.0,True,Non-designer,2,recognition,3,inputsans,matisiber,non-word,Sure seen,0.0,not seen,masuld,528,54,easy to read,25-03-2019 19:37
59,0.0,0.0,True,Non-designer,2,recognition,4,inputsans,besides,word,Sure seen,0.0,not seen,benefit,505,54,easy to read,25-03-2019 19:37
60,0.0,0.0,True,Non-designer,2,recognition,5,inputsans,especially,word,Sure seen,0.0,not seen,escape,583,54,easy to read,25-03-2019 19:37
61,0.0,0.0,True,Non-designer,2,recognition,6,inputsans,sooked,non-word,Sure seen,0.0,not seen,sountion,511,54,easy to read,25-03-2019 19:37
62,0.0,0.0,True,Non-designer,2,recognition,7,inputsans,arould,non-word,Sure seen,1.0,seen,arould,449,54,easy to read,25-03-2019 19:37
63,0.0,0.0,True,Non-designer,2,recognition,8,inputsans,proception,non-word,Sure seen,0.0,not seen,pritialing,432,54,easy to read,25-03-2019 19:37
64,0.0,0.0,True,Non-designer,2,recognition,9,inputsans,trevation,non-word,Sure seen,0.0,not seen,treselved,433,54,easy to read,25-03-2019 19:37
65,0.0,0.0,True,Non-designer,2,recognition,10,inputsans,appropriate,word,Sure seen,1.0,seen,appropriate,448,54,easy to read,25-03-2019 19:37
66,0.0,0.0,True,Non-designer,2,recognition,11,inputsans,adult,word,Sure seen,1.0,seen,adult,495,54,easy to read,25-03-2019 19:37
67,0.0,0.0,True,Non-designer,2,recognition,12,inputsans,physical,word,Sure seen,1.0,seen,physical,440,54,easy to read,25-03-2019 19:37
68,0.0,0.0,True,Non-designer,2,recognition,13,inputsans,uneard,non-word,Sure seen,1.0,seen,uneard,321,54,easy to read,25-03-2019 19:37
69,0.0,0.0,True,Non-designer,2,recognition,14,inputsans,pattern,word,Sure seen,1.0,seen,pattern,575,54,easy to read,25-03-2019 19:37
70,0.0,0.0,True,Non-designer,2,recognition,15,inputsans,vally,non-word,Sure seen,1.0,seen,vally,681,54,easy to read,25-03-2019 19:37
71,0.0,0.0,True,Non-designer,2,recognition,16,inputsans,meeting,word,Sure seen,0.0,not seen,medical,511,54,easy to read,25-03-2019 19:37
72,0.0,1.0,True,Non-designer,1,lexical,1,sansforgetica,common,word,Sure word,1.0,,,2752,40,easy to read,19-03-2019 16:35
73,0.0,1.0,True,Non-designer,1,lexical,2,sansforgetica,carefully,word,Sure word,1.0,,,1810,40,easy to read,19-03-2019 16:35
74,0.0,1.0,True,Non-designer,1,lexical,3,sansforgetica,pieces,word,Sure word,1.0,,,1541,40,easy to read,19-03-2019 16:35
75,0.0,1.0,True,Non-designer,1,lexical,4,sansforgetica,sprairen,non-word,Probably non-word,1.0,,,4110,40,easy to read,19-03-2019 16:35
76,0.0,1.0,True,Non-designer,1,lexical,5,sansforgetica,protbation,non-word,Probably non-word,1.0,,,3288,40,easy to read,19-03-2019 16:35
77,0.0,1.0,True,Non-designer,1,lexical,6,sansforgetica,exactly,word,Sure word,1.0,,,1997,40,easy to read,19-03-2019 16:35
78,0.0,1.0,True,Non-designer,1,lexical,7,sansforgetica,expedintly,non-word,Probably word,0.0,,,3771,40,easy to read,19-03-2019 16:35
79,0.0,1.0,True,Non-designer,1,lexical,8,sansforgetica,sategontly,non-word,Probably non-word,1.0,,,4236,40,easy to read,19-03-2019 16:35
80,0.0,1.0,True,Non-designer,1,lexical,9,sansforgetica,concern,word,Sure word,1.0,,,1757,40,easy to read,19-03-2019 16:35
81,0.0,1.0,True,Non-designer,1,lexical,10,sansforgetica,capable,word,Sure word,1.0,,,1210,40,easy to read,19-03-2019 16:35
82,0.0,1.0,True,Non-designer,1,lexical,11,sansforgetica,morence,non-word,Probably word,0.0,,,2380,40,easy to read,19-03-2019 16:35
83,0.0,1.0,True,Non-designer,1,lexical,12,sansforgetica,undouring,non-word,Sure non-word,1.0,,,4086,40,easy to read,19-03-2019 16:35
84,0.0,1.0,True,Non-designer,1,lexical,13,sansforgetica,requinest,non-word,Sure non-word,1.0,,,1711,40,easy to read,19-03-2019 16:35
85,0.0,1.0,True,Non-designer,1,lexical,14,sansforgetica,argument,word,Sure word,1.0,,,1902,40,easy to read,19-03-2019 16:35
86,0.0,1.0,True,Non-designer,1,lexical,15,sansforgetica,fight,word,Sure word,1.0,,,1306,40,easy to read,19-03-2019 16:35
87,0.0,1.0,True,Non-designer,1,lexical,16,sansforgetica,equipmely,non-word,Probably non-word,1.0,,,5394,40,easy to read,19-03-2019 16:35
88,0.0,1.0,True,Non-designer,1,lexical,17,sansforgetica,phone,word,Sure word,1.0,,,2186,40,easy to read,19-03-2019 16:35
89,0.0,1.0,True,Non-designer,1,lexical,18,sansforgetica,learn,word,Sure word,1.0,,,1196,40,easy to read,19-03-2019 16:35
90,0.0,1.0,True,Non-designer,1,lexical,19,sansforgetica,perietail,non-word,Probably word,0.0,,,3147,40,easy to read,19-03-2019 16:35
91,0.0,1.0,True,Non-designer,1,lexical,20,sansforgetica,compereness,non-word,Probably word,0.0,,,2871,40,easy to read,19-03-2019 16:35
92,0.0,1.0,True,Non-designer,1,recognition,1,sansforgetica,requinest,non-word,Sure seen,1.0,seen,requinest,2476,40,easy to read,19-03-2019 16:35
93,0.0,1.0,True,Non-designer,1,recognition,2,sansforgetica,undublisted,non-word,Sure not seen,1.0,not seen,undouring,2857,40,easy to read,19-03-2019 16:35
94,0.0,1.0,True,Non-designer,1,recognition,3,sansforgetica,sategontly,non-word,Sure seen,1.0,seen,sategontly,2341,40,easy to read,19-03-2019 16:35
95,0.0,1.0,True,Non-designer,1,recognition,4,sansforgetica,equipmely,non-word,Sure seen,1.0,seen,equipmely,1552,40,easy to read,19-03-2019 16:35
96,0.0,1.0,True,Non-designer,1,recognition,5,sansforgetica,experaties,non-word,Sure not seen,1.0,not seen,expedintly,2583,40,easy to read,19-03-2019 16:35
97,0.0,1.0,True,Non-designer,1,recognition,6,sansforgetica,concern,word,Sure seen,1.0,seen,concern,1606,40,easy to read,19-03-2019 16:35
98,0.0,1.0,True,Non-designer,1,recognition,7,sansforgetica,capable,word,Sure seen,1.0,seen,capable,1170,40,easy to read,19-03-2019 16:35
99,0.0,1.0,True,Non-designer,1,recognition,8,sansforgetica,fight,word,Sure seen,1.0,seen,fight,1235,40,easy to read,19-03-2019 16:35
100,0.0,1.0,True,Non-designer,1,recognition,9,sansforgetica,carefully,word,Sure seen,1.0,seen,carefully,1202,40,easy to read,19-03-2019 16:35
101,0.0,1.0,True,Non-designer,1,recognition,10,sansforgetica,morence,non-word,Sure seen,1.0,seen,morence,1549,40,easy to read,19-03-2019 16:35
102,0.0,1.0,True,Non-designer,1,recognition,11,sansforgetica,sprikelf,non-word,Probably not seen,1.0,not seen,sprairen,2861,40,easy to read,19-03-2019 16:35
103,0.0,1.0,True,Non-designer,1,recognition,12,sansforgetica,example,word,Sure seen,0.0,not seen,exactly,1556,40,easy to read,19-03-2019 16:35
104,0.0,1.0,True,Non-designer,1,recognition,13,sansforgetica,physical,word,Sure not seen,1.0,not seen,phone,2194,40,easy to read,19-03-2019 16:35
105,0.0,1.0,True,Non-designer,1,recognition,14,sansforgetica,placed,word,Sure not seen,1.0,not seen,pieces,1666,40,easy to read,19-03-2019 16:35
106,0.0,1.0,True,Non-designer,1,recognition,15,sansforgetica,protercial,non-word,Probably seen,0.0,not seen,protbation,2617,40,easy to read,19-03-2019 16:35
107,0.0,1.0,True,Non-designer,1,recognition,16,sansforgetica,learning,word,Probably seen,0.0,not seen,learn,2014,40,easy to read,19-03-2019 16:35
108,0.0,1.0,True,Non-designer,2,lexical,1,inputsans,battle,word,Sure word,1.0,,,2910,42,very easy to read,19-03-2019 16:35
109,0.0,1.0,True,Non-designer,2,lexical,2,inputsans,possecapped,non-word,Sure non-word,1.0,,,2848,42,very easy to read,19-03-2019 16:35
110,0.0,1.0,True,Non-designer,2,lexical,3,inputsans,steet,non-word,Sure non-word,1.0,,,2065,42,very easy to read,19-03-2019 16:35
111,0.0,1.0,True,Non-designer,2,lexical,4,inputsans,stood,word,Sure word,1.0,,,2040,42,very easy to read,19-03-2019 16:35
112,0.0,1.0,True,Non-designer,2,lexical,5,inputsans,hunwary,non-word,Probably non-word,1.0,,,2168,42,very easy to read,19-03-2019 16:35
113,0.0,1.0,True,Non-designer,2,lexical,6,inputsans,contrimenty,non-word,Probably word,0.0,,,3257,42,very easy to read,19-03-2019 16:35
114,0.0,1.0,True,Non-designer,2,lexical,7,inputsans,explaign,non-word,Sure non-word,1.0,,,1948,42,very easy to read,19-03-2019 16:35
115,0.0,1.0,True,Non-designer,2,lexical,8,inputsans,peoply,non-word,Sure non-word,1.0,,,1816,42,very easy to read,19-03-2019 16:35
116,0.0,1.0,True,Non-designer,2,lexical,9,inputsans,familiar,word,Sure word,1.0,,,1978,42,very easy to read,19-03-2019 16:35
117,0.0,1.0,True,Non-designer,2,lexical,10,inputsans,problems,word,Sure word,1.0,,,1514,42,very easy to read,19-03-2019 16:35
118,0.0,1.0,True,Non-designer,2,lexical,11,inputsans,successful,word,Sure word,1.0,,,1330,42,very easy to read,19-03-2019 16:35
119,0.0,1.0,True,Non-designer,2,lexical,12,inputsans,forced,word,Sure word,1.0,,,1318,42,very easy to read,19-03-2019 16:35
120,0.0,1.0,True,Non-designer,2,lexical,13,inputsans,apportuning,non-word,Sure word,0.0,,,1832,42,very easy to read,19-03-2019 16:35
121,0.0,1.0,True,Non-designer,2,lexical,14,inputsans,terms,word,Sure word,1.0,,,1104,42,very easy to read,19-03-2019 16:35
122,0.0,1.0,True,Non-designer,2,lexical,15,inputsans,dollars,word,Sure word,1.0,,,1317,42,very easy to read,19-03-2019 16:35
123,0.0,1.0,True,Non-designer,2,lexical,16,inputsans,fashing,non-word,Sure word,0.0,,,4082,42,very easy to read,19-03-2019 16:35
124,0.0,1.0,True,Non-designer,2,lexical,17,inputsans,thick,word,Sure word,1.0,,,1654,42,very easy to read,19-03-2019 16:35
125,0.0,1.0,True,Non-designer,2,lexical,18,inputsans,limited,word,Sure word,1.0,,,1153,42,very easy to read,19-03-2019 16:35
126,0.0,1.0,True,Non-designer,2,lexical,19,inputsans,gromish,non-word,Probably non-word,1.0,,,1781,42,very easy to read,19-03-2019 16:35
127,0.0,1.0,True,Non-designer,2,lexical,20,inputsans,larms,non-word,Sure non-word,1.0,,,2338,42,very easy to read,19-03-2019 16:35
128,0.0,1.0,True,Non-designer,2,recognition,1,inputsans,explaign,non-word,Sure not seen,0.0,seen,explaign,3672,42,very easy to read,19-03-2019 16:35
129,0.0,1.0,True,Non-designer,2,recognition,2,inputsans,limited,word,Sure seen,1.0,seen,limited,1510,42,very easy to read,19-03-2019 16:35
130,0.0,1.0,True,Non-designer,2,recognition,3,inputsans,larms,non-word,Sure seen,1.0,seen,larms,1989,42,very easy to read,19-03-2019 16:35
131,0.0,1.0,True,Non-designer,2,recognition,4,inputsans,terrible,word,Sure not seen,1.0,not seen,terms,2266,42,very easy to read,19-03-2019 16:35
132,0.0,1.0,True,Non-designer,2,recognition,5,inputsans,successful,word,Sure seen,1.0,seen,successful,1982,42,very easy to read,19-03-2019 16:35
133,0.0,1.0,True,Non-designer,2,recognition,6,inputsans,faterb,non-word,Sure not seen,1.0,not seen,fashing,2009,42,very easy to read,19-03-2019 16:35
134,0.0,1.0,True,Non-designer,2,recognition,7,inputsans,familiar,word,Sure seen,1.0,seen,familiar,2618,42,very easy to read,19-03-2019 16:35
135,0.0,1.0,True,Non-designer,2,recognition,8,inputsans,doors,word,Sure not seen,1.0,not seen,dollars,1726,42,very easy to read,19-03-2019 16:35
136,0.0,1.0,True,Non-designer,2,recognition,9,inputsans,appresses,non-word,Sure not seen,1.0,not seen,apportuning,1623,42,very easy to read,19-03-2019 16:35
137,0.0,1.0,True,Non-designer,2,recognition,10,inputsans,process,word,Probably seen,0.0,not seen,problems,3536,42,very easy to read,19-03-2019 16:35
138,0.0,1.0,True,Non-designer,2,recognition,11,inputsans,stood,word,Sure seen,1.0,seen,stood,1565,42,very easy to read,19-03-2019 16:35
139,0.0,1.0,True,Non-designer,2,recognition,12,inputsans,possecapped,non-word,Sure seen,1.0,seen,possecapped,2050,42,very easy to read,19-03-2019 16:35
140,0.0,1.0,True,Non-designer,2,recognition,13,inputsans,controyed,non-word,Sure not seen,1.0,not seen,contrimenty,1901,42,very easy to read,19-03-2019 16:35
141,0.0,1.0,True,Non-designer,2,recognition,14,inputsans,peoply,non-word,Sure seen,1.0,seen,peoply,3067,42,very easy to read,19-03-2019 16:35
142,0.0,1.0,True,Non-designer,2,recognition,15,inputsans,stich,non-word,Probably not seen,1.0,not seen,steet,2061,42,very easy to read,19-03-2019 16:35
143,0.0,1.0,True,Non-designer,2,recognition,16,inputsans,foreign,word,Probably not seen,1.0,not seen,forced,2122,42,very easy to read,19-03-2019 16:35
144,0.0,2.0,True,Other designer,1,lexical,1,sansforgetica,unconscents,non-word,Probably non-word,1.0,,,5466,63,ok,19-03-2019 16:25
145,0.0,2.0,True,Other designer,1,lexical,2,sansforgetica,living,word,Sure word,1.0,,,1568,63,ok,19-03-2019 16:25
146,0.0,2.0,True,Other designer,1,lexical,3,sansforgetica,opplanation,non-word,Probably non-word,1.0,,,4287,63,ok,19-03-2019 16:25
147,0.0,2.0,True,Other designer,1,lexical,4,sansforgetica,worked,word,Sure word,1.0,,,1892,63,ok,19-03-2019 16:25
148,0.0,2.0,True,Other designer,1,lexical,5,sansforgetica,without,word,Sure word,1.0,,,1250,63,ok,19-03-2019 16:25
149,0.0,2.0,True,Other designer,1,lexical,6,sansforgetica,althdren,non-word,Sure non-word,1.0,,,2927,63,ok,19-03-2019 16:25
150,0.0,2.0,True,Other designer,1,lexical,7,sansforgetica,scievority,non-word,Probably non-word,1.0,,,3794,63,ok,19-03-2019 16:25
151,0.0,2.0,True,Other designer,1,lexical,8,sansforgetica,answered,word,Sure word,1.0,,,1754,63,ok,19-03-2019 16:25
152,0.0,2.0,True,Other designer,1,lexical,9,sansforgetica,speech,word,Sure word,1.0,,,1146,63,ok,19-03-2019 16:25
153,0.0,2.0,True,Other designer,1,lexical,10,sansforgetica,drojects,non-word,Probably non-word,1.0,,,2920,63,ok,19-03-2019 16:25
154,0.0,2.0,True,Other designer,1,lexical,11,sansforgetica,television,word,Sure word,1.0,,,1427,63,ok,19-03-2019 16:25
155,0.0,2.0,True,Other designer,1,lexical,12,sansforgetica,given,word,Sure word,1.0,,,1115,63,ok,19-03-2019 16:25
156,0.0,2.0,True,Other designer,1,lexical,13,sansforgetica,regioney,non-word,Sure non-word,1.0,,,2781,63,ok,19-03-2019 16:25
157,0.0,2.0,True,Other designer,1,lexical,14,sansforgetica,money,word,Sure word,1.0,,,2299,63,ok,19-03-2019 16:25
158,0.0,2.0,True,Other designer,1,lexical,15,sansforgetica,break,word,Sure word,1.0,,,1077,63,ok,19-03-2019 16:25
159,0.0,2.0,True,Other designer,1,lexical,16,sansforgetica,creviver,non-word,Probably non-word,1.0,,,1559,63,ok,19-03-2019 16:25
160,0.0,2.0,True,Other designer,1,lexical,17,sansforgetica,handence,non-word,Probably non-word,1.0,,,1840,63,ok,19-03-2019 16:25
161,0.0,2.0,True,Other designer,1,lexical,18,sansforgetica,railts,non-word,Probably non-word,1.0,,,1610,63,ok,19-03-2019 16:25
162,0.0,2.0,True,Other designer,1,lexical,19,sansforgetica,objectuffs,non-word,Probably non-word,1.0,,,2212,63,ok,19-03-2019 16:25
163,0.0,2.0,True,Other designer,1,lexical,20,sansforgetica,probably,word,Sure word,1.0,,,1626,63,ok,19-03-2019 16:25
164,0.0,2.0,True,Other designer,1,recognition,1,sansforgetica,obsenctiage,non-word,Sure not seen,1.0,not seen,objectuffs,4120,63,ok,19-03-2019 16:25
165,0.0,2.0,True,Other designer,1,recognition,2,sansforgetica,telling,word,Probably not seen,1.0,not seen,television,3853,63,ok,19-03-2019 16:25
166,0.0,2.0,True,Other designer,1,recognition,3,sansforgetica,relaterial,non-word,Sure not seen,1.0,not seen,regioney,2322,63,ok,19-03-2019 16:25
167,0.0,2.0,True,Other designer,1,recognition,4,sansforgetica,workers,word,Sure not seen,1.0,not seen,worked,1532,63,ok,19-03-2019 16:25
168,0.0,2.0,True,Other designer,1,recognition,5,sansforgetica,speed,word,Sure not seen,1.0,not seen,speech,1215,63,ok,19-03-2019 16:25
169,0.0,2.0,True,Other designer,1,recognition,6,sansforgetica,althdren,non-word,Probably seen,1.0,seen,althdren,4431,63,ok,19-03-2019 16:25
170,0.0,2.0,True,Other designer,1,recognition,7,sansforgetica,railts,non-word,Sure seen,1.0,seen,railts,2368,63,ok,19-03-2019 16:25
171,0.0,2.0,True,Other designer,1,recognition,8,sansforgetica,hanposed,non-word,Sure not seen,1.0,not seen,handence,1671,63,ok,19-03-2019 16:25
172,0.0,2.0,True,Other designer,1,recognition,9,sansforgetica,women,word,Sure not seen,1.0,not seen,without,2863,63,ok,19-03-2019 16:25
173,0.0,2.0,True,Other designer,1,recognition,10,sansforgetica,durprology,non-word,Sure not seen,1.0,not seen,drojects,1782,63,ok,19-03-2019 16:25
174,0.0,2.0,True,Other designer,1,recognition,11,sansforgetica,money,word,Sure not seen,0.0,seen,money,3943,63,ok,19-03-2019 16:25
175,0.0,2.0,True,Other designer,1,recognition,12,sansforgetica,given,word,Sure seen,1.0,seen,given,3144,63,ok,19-03-2019 16:25
176,0.0,2.0,True,Other designer,1,recognition,13,sansforgetica,scievority,non-word,Probably not seen,0.0,seen,scievority,5751,63,ok,19-03-2019 16:25
177,0.0,2.0,True,Other designer,1,recognition,14,sansforgetica,break,word,Sure seen,1.0,seen,break,1496,63,ok,19-03-2019 16:25
178,0.0,2.0,True,Other designer,1,recognition,15,sansforgetica,creviver,non-word,Probably not seen,0.0,seen,creviver,1744,63,ok,19-03-2019 16:25
179,0.0,2.0,True,Other designer,1,recognition,16,sansforgetica,answered,word,Probably not seen,0.0,seen,answered,3862,63,ok,19-03-2019 16:25
180,0.0,2.0,True,Other designer,2,lexical,1,inputsans,dindow,non-word,Probably non-word,1.0,,,3444,60,difficult to read,19-03-2019 16:25
181,0.0,2.0,True,Other designer,2,lexical,2,inputsans,friend,word,Sure word,1.0,,,1517,60,difficult to read,19-03-2019 16:25
182,0.0,2.0,True,Other designer,2,lexical,3,inputsans,century,word,Sure word,1.0,,,1275,60,difficult to read,19-03-2019 16:25
183,0.0,2.0,True,Other designer,2,lexical,4,inputsans,letters,word,Sure word,1.0,,,1425,60,difficult to read,19-03-2019 16:25
184,0.0,2.0,True,Other designer,2,lexical,5,inputsans,balance,word,Sure word,1.0,,,944,60,difficult to read,19-03-2019 16:25
185,0.0,2.0,True,Other designer,2,lexical,6,inputsans,unpligatic,non-word,Probably word,0.0,,,1831,60,difficult to read,19-03-2019 16:25
186,0.0,2.0,True,Other designer,2,lexical,7,inputsans,hunneshed,non-word,Probably non-word,1.0,,,1911,60,difficult to read,19-03-2019 16:25
187,0.0,2.0,True,Other designer,2,lexical,8,inputsans,after,word,Sure word,1.0,,,1387,60,difficult to read,19-03-2019 16:25
188,0.0,2.0,True,Other designer,2,lexical,9,inputsans,veginnity,non-word,Probably non-word,1.0,,,2042,60,difficult to read,19-03-2019 16:25
189,0.0,2.0,True,Other designer,2,lexical,10,inputsans,statement,word,Sure word,1.0,,,1465,60,difficult to read,19-03-2019 16:25
190,0.0,2.0,True,Other designer,2,lexical,11,inputsans,millars,non-word,Probably word,0.0,,,4706,60,difficult to read,19-03-2019 16:25
191,0.0,2.0,True,Other designer,2,lexical,12,inputsans,anywhere,word,Sure word,1.0,,,1384,60,difficult to read,19-03-2019 16:25
192,0.0,2.0,True,Other designer,2,lexical,13,inputsans,discificial,non-word,Probably non-word,1.0,,,2052,60,difficult to read,19-03-2019 16:25
193,0.0,2.0,True,Other designer,2,lexical,14,inputsans,aponoments,non-word,Probably non-word,1.0,,,2287,60,difficult to read,19-03-2019 16:25
194,0.0,2.0,True,Other designer,2,lexical,15,inputsans,coming,word,Sure word,1.0,,,1403,60,difficult to read,19-03-2019 16:25
195,0.0,2.0,True,Other designer,2,lexical,16,inputsans,priend,non-word,Probably word,0.0,,,1776,60,difficult to read,19-03-2019 16:25
196,0.0,2.0,True,Other designer,2,lexical,17,inputsans,narrow,word,Sure word,1.0,,,1114,60,difficult to read,19-03-2019 16:25
197,0.0,2.0,True,Other designer,2,lexical,18,inputsans,expeatious,non-word,Probably non-word,1.0,,,1578,60,difficult to read,19-03-2019 16:25
198,0.0,2.0,True,Other designer,2,lexical,19,inputsans,rountes,non-word,Probably non-word,1.0,,,2325,60,difficult to read,19-03-2019 16:25
199,0.0,2.0,True,Other designer,2,lexical,20,inputsans,touch,word,Sure word,1.0,,,1367,60,difficult to read,19-03-2019 16:25
200,0.0,2.0,True,Other designer,2,recognition,1,inputsans,states,word,Sure not seen,1.0,not seen,statement,3685,60,difficult to read,19-03-2019 16:25
201,0.0,2.0,True,Other designer,2,recognition,2,inputsans,coming,word,Sure seen,1.0,seen,coming,1903,60,difficult to read,19-03-2019 16:25
202,0.0,2.0,True,Other designer,2,recognition,3,inputsans,after,word,Probably not seen,0.0,seen,after,3476,60,difficult to read,19-03-2019 16:25
203,0.0,2.0,True,Other designer,2,recognition,4,inputsans,millars,non-word,Sure seen,1.0,seen,millars,1996,60,difficult to read,19-03-2019 16:25
204,0.0,2.0,True,Other designer,2,recognition,5,inputsans,friendly,word,Sure not seen,1.0,not seen,friend,2092,60,difficult to read,19-03-2019 16:25
205,0.0,2.0,True,Other designer,2,recognition,6,inputsans,hunneshed,non-word,Probably not seen,0.0,seen,hunneshed,4571,60,difficult to read,19-03-2019 16:25
206,0.0,2.0,True,Other designer,2,recognition,7,inputsans,rountes,non-word,Probably seen,1.0,seen,rountes,7224,60,difficult to read,19-03-2019 16:25
207,0.0,2.0,True,Other designer,2,recognition,8,inputsans,expeativer,non-word,Probably seen,0.0,not seen,expeatious,2063,60,difficult to read,19-03-2019 16:25
208,0.0,2.0,True,Other designer,2,recognition,9,inputsans,level,word,Probably not seen,1.0,not seen,letters,11411,60,difficult to read,19-03-2019 16:25
209,0.0,2.0,True,Other designer,2,recognition,10,inputsans,veginnity,non-word,Probably seen,1.0,seen,veginnity,2040,60,difficult to read,19-03-2019 16:25
210,0.0,2.0,True,Other designer,2,recognition,11,inputsans,touch,word,Sure seen,1.0,seen,touch,1604,60,difficult to read,19-03-2019 16:25
211,0.0,2.0,True,Other designer,2,recognition,12,inputsans,discinuing,non-word,Probably not seen,1.0,not seen,discificial,2039,60,difficult to read,19-03-2019 16:25
212,0.0,2.0,True,Other designer,2,recognition,13,inputsans,narrow,word,Sure seen,1.0,seen,narrow,1396,60,difficult to read,19-03-2019 16:25
213,0.0,2.0,True,Other designer,2,recognition,14,inputsans,certain,word,Probably not seen,1.0,not seen,century,4202,60,difficult to read,19-03-2019 16:25
214,0.0,2.0,True,Other designer,2,recognition,15,inputsans,direndly,non-word,Probably not seen,1.0,not seen,dindow,1669,60,difficult to read,19-03-2019 16:25
215,0.0,2.0,True,Other designer,2,recognition,16,inputsans,applictable,non-word,Probably not seen,1.0,not seen,aponoments,3415,60,difficult to read,19-03-2019 16:25
216,0.0,3.0,True,Non-designer,1,lexical,1,inputsans,finansive,non-word,Sure non-word,1.0,,,2001,40,easy to read,10-03-2019 12:06
217,0.0,3.0,True,Non-designer,1,lexical,2,inputsans,immediative,non-word,Sure non-word,1.0,,,1562,40,easy to read,10-03-2019 12:06
218,0.0,3.0,True,Non-designer,1,lexical,3,inputsans,soctic,non-word,Sure non-word,1.0,,,1094,40,easy to read,10-03-2019 12:06
219,0.0,3.0,True,Non-designer,1,lexical,4,inputsans,estitimes,non-word,Sure non-word,1.0,,,1009,40,easy to read,10-03-2019 12:06
220,0.0,3.0,True,Non-designer,1,lexical,5,inputsans,aware,word,Sure word,1.0,,,1401,40,easy to read,10-03-2019 12:06
221,0.0,3.0,True,Non-designer,1,lexical,6,inputsans,scale,word,Sure word,1.0,,,943,40,easy to read,10-03-2019 12:06
222,0.0,3.0,True,Non-designer,1,lexical,7,inputsans,computer,word,Sure word,1.0,,,1153,40,easy to read,10-03-2019 12:06
223,0.0,3.0,True,Non-designer,1,lexical,8,inputsans,individual,word,Sure word,1.0,,,847,40,easy to read,10-03-2019 12:06
224,0.0,3.0,True,Non-designer,1,lexical,9,inputsans,forgotter,non-word,Sure non-word,1.0,,,1695,40,easy to read,10-03-2019 12:06
225,0.0,3.0,True,Non-designer,1,lexical,10,inputsans,dressed,word,Sure word,1.0,,,1544,40,easy to read,10-03-2019 12:06
226,0.0,3.0,True,Non-designer,1,lexical,11,inputsans,sacusaned,non-word,Sure non-word,1.0,,,1609,40,easy to read,10-03-2019 12:06
227,0.0,3.0,True,Non-designer,1,lexical,12,inputsans,audience,word,Sure word,1.0,,,1688,40,easy to read,10-03-2019 12:06
228,0.0,3.0,True,Non-designer,1,lexical,13,inputsans,function,word,Sure word,1.0,,,919,40,easy to read,10-03-2019 12:06
229,0.0,3.0,True,Non-designer,1,lexical,14,inputsans,struggle,word,Sure word,1.0,,,899,40,easy to read,10-03-2019 12:06
230,0.0,3.0,True,Non-designer,1,lexical,15,inputsans,corner,word,Sure word,1.0,,,997,40,easy to read,10-03-2019 12:06
231,0.0,3.0,True,Non-designer,1,lexical,16,inputsans,airalow,non-word,Sure non-word,1.0,,,1761,40,easy to read,10-03-2019 12:06
232,0.0,3.0,True,Non-designer,1,lexical,17,inputsans,suggers,non-word,Sure non-word,1.0,,,1902,40,easy to read,10-03-2019 12:06
233,0.0,3.0,True,Non-designer,1,lexical,18,inputsans,vehients,non-word,Sure non-word,1.0,,,1000,40,easy to read,10-03-2019 12:06
234,0.0,3.0,True,Non-designer,1,lexical,19,inputsans,pentifical,non-word,Sure non-word,1.0,,,1210,40,easy to read,10-03-2019 12:06
235,0.0,3.0,True,Non-designer,1,lexical,20,inputsans,attitude,word,Sure word,1.0,,,1447,40,easy to read,10-03-2019 12:06
236,0.0,3.0,True,Non-designer,1,recognition,1,inputsans,eurviver,non-word,Probably not seen,1.0,not seen,estitimes,4480,40,easy to read,10-03-2019 12:06
237,0.0,3.0,True,Non-designer,1,recognition,2,inputsans,soctic,non-word,Probably not seen,0.0,seen,soctic,1592,40,easy to read,10-03-2019 12:06
238,0.0,3.0,True,Non-designer,1,recognition,3,inputsans,authorities,word,Sure not seen,1.0,not seen,audience,2320,40,easy to read,10-03-2019 12:06
239,0.0,3.0,True,Non-designer,1,recognition,4,inputsans,sancerats,non-word,Probably seen,0.0,not seen,sacusaned,2061,40,easy to read,10-03-2019 12:06
240,0.0,3.0,True,Non-designer,1,recognition,5,inputsans,velerion,non-word,Probably seen,0.0,not seen,vehients,1577,40,easy to read,10-03-2019 12:06
241,0.0,3.0,True,Non-designer,1,recognition,6,inputsans,corner,word,Probably not seen,0.0,seen,corner,1952,40,easy to read,10-03-2019 12:06
242,0.0,3.0,True,Non-designer,1,recognition,7,inputsans,function,word,Sure seen,1.0,seen,function,1521,40,easy to read,10-03-2019 12:06
243,0.0,3.0,True,Non-designer,1,recognition,8,inputsans,suggesent,non-word,Sure seen,0.0,not seen,suggers,2134,40,easy to read,10-03-2019 12:06
244,0.0,3.0,True,Non-designer,1,recognition,9,inputsans,aware,word,Sure seen,1.0,seen,aware,1545,40,easy to read,10-03-2019 12:06
245,0.0,3.0,True,Non-designer,1,recognition,10,inputsans,airalow,non-word,Probably seen,1.0,seen,airalow,1905,40,easy to read,10-03-2019 12:06
246,0.0,3.0,True,Non-designer,1,recognition,11,inputsans,finansive,non-word,Probably seen,1.0,seen,finansive,1703,40,easy to read,10-03-2019 12:06
247,0.0,3.0,True,Non-designer,1,recognition,12,inputsans,industrial,word,Probably seen,0.0,not seen,individual,1537,40,easy to read,10-03-2019 12:06
248,0.0,3.0,True,Non-designer,1,recognition,13,inputsans,studies,word,Probably seen,0.0,not seen,struggle,1303,40,easy to read,10-03-2019 12:06
249,0.0,3.0,True,Non-designer,1,recognition,14,inputsans,immediative,non-word,Sure seen,1.0,seen,immediative,1655,40,easy to read,10-03-2019 12:06
250,0.0,3.0,True,Non-designer,1,recognition,15,inputsans,computer,word,Sure seen,1.0,seen,computer,1922,40,easy to read,10-03-2019 12:06
251,0.0,3.0,True,Non-designer,1,recognition,16,inputsans,drink,word,Sure not seen,1.0,not seen,dressed,1847,40,easy to read,10-03-2019 12:06
252,0.0,3.0,True,Non-designer,2,lexical,1,sansforgetica,stich,non-word,Sure non-word,1.0,,,2802,26,difficult to read,10-03-2019 12:06
253,0.0,3.0,True,Non-designer,2,lexical,2,sansforgetica,among,word,Sure word,1.0,,,1768,26,difficult to read,10-03-2019 12:06
254,0.0,3.0,True,Non-designer,2,lexical,3,sansforgetica,sungs,non-word,Sure non-word,1.0,,,1904,26,difficult to read,10-03-2019 12:06
255,0.0,3.0,True,Non-designer,2,lexical,4,sansforgetica,fraditted,non-word,Sure non-word,1.0,,,1736,26,difficult to read,10-03-2019 12:06
256,0.0,3.0,True,Non-designer,2,lexical,5,sansforgetica,breath,word,Sure word,1.0,,,1656,26,difficult to read,10-03-2019 12:06
257,0.0,3.0,True,Non-designer,2,lexical,6,sansforgetica,dictrised,non-word,Sure non-word,1.0,,,2176,26,difficult to read,10-03-2019 12:06
258,0.0,3.0,True,Non-designer,2,lexical,7,sansforgetica,create,word,Sure word,1.0,,,1656,26,difficult to read,10-03-2019 12:06
259,0.0,3.0,True,Non-designer,2,lexical,8,sansforgetica,assinquent,non-word,Sure non-word,1.0,,,2080,26,difficult to read,10-03-2019 12:06
260,0.0,3.0,True,Non-designer,2,lexical,9,sansforgetica,wrong,word,Sure word,1.0,,,2448,26,difficult to read,10-03-2019 12:06
261,0.0,3.0,True,Non-designer,2,lexical,10,sansforgetica,becruit,non-word,Sure non-word,1.0,,,2264,26,difficult to read,10-03-2019 12:06
262,0.0,3.0,True,Non-designer,2,lexical,11,sansforgetica,ahead,word,Sure word,1.0,,,1634,26,difficult to read,10-03-2019 12:06
263,0.0,3.0,True,Non-designer,2,lexical,12,sansforgetica,committee,word,Sure word,1.0,,,1341,26,difficult to read,10-03-2019 12:06
264,0.0,3.0,True,Non-designer,2,lexical,13,sansforgetica,choose,word,Sure word,1.0,,,961,26,difficult to read,10-03-2019 12:06
265,0.0,3.0,True,Non-designer,2,lexical,14,sansforgetica,dress,word,Sure word,1.0,,,1065,26,difficult to read,10-03-2019 12:06
266,0.0,3.0,True,Non-designer,2,lexical,15,sansforgetica,outhough,non-word,Sure non-word,1.0,,,3742,26,difficult to read,10-03-2019 12:06
267,0.0,3.0,True,Non-designer,2,lexical,16,sansforgetica,commerable,non-word,Sure non-word,1.0,,,2688,26,difficult to read,10-03-2019 12:06
268,0.0,3.0,True,Non-designer,2,lexical,17,sansforgetica,check,word,Sure word,1.0,,,1633,26,difficult to read,10-03-2019 12:06
269,0.0,3.0,True,Non-designer,2,lexical,18,sansforgetica,walls,word,Sure word,1.0,,,992,26,difficult to read,10-03-2019 12:06
270,0.0,3.0,True,Non-designer,2,lexical,19,sansforgetica,cuppened,non-word,Sure non-word,1.0,,,2185,26,difficult to read,10-03-2019 12:06
271,0.0,3.0,True,Non-designer,2,lexical,20,sansforgetica,apprest,non-word,Sure non-word,1.0,,,1559,26,difficult to read,10-03-2019 12:06
272,0.0,3.0,True,Non-designer,2,recognition,1,sansforgetica,ahead,word,Sure seen,1.0,seen,ahead,6318,26,difficult to read,10-03-2019 12:06
273,0.0,3.0,True,Non-designer,2,recognition,2,sansforgetica,chosen,word,Probably seen,0.0,not seen,choose,3160,26,difficult to read,10-03-2019 12:06
274,0.0,3.0,True,Non-designer,2,recognition,3,sansforgetica,outhough,non-word,Sure seen,1.0,seen,outhough,2704,26,difficult to read,10-03-2019 12:06
275,0.0,3.0,True,Non-designer,2,recognition,4,sansforgetica,fraditted,non-word,Probably seen,1.0,seen,fraditted,2169,26,difficult to read,10-03-2019 12:06
276,0.0,3.0,True,Non-designer,2,recognition,5,sansforgetica,check,word,Probably seen,1.0,seen,check,1400,26,difficult to read,10-03-2019 12:06
277,0.0,3.0,True,Non-designer,2,recognition,6,sansforgetica,cuppened,non-word,Sure seen,1.0,seen,cuppened,2158,26,difficult to read,10-03-2019 12:06
278,0.0,3.0,True,Non-designer,2,recognition,7,sansforgetica,commerable,non-word,Sure seen,1.0,seen,commerable,1473,26,difficult to read,10-03-2019 12:06
279,0.0,3.0,True,Non-designer,2,recognition,8,sansforgetica,arges,non-word,Sure not seen,1.0,not seen,apprest,1991,26,difficult to read,10-03-2019 12:06
280,0.0,3.0,True,Non-designer,2,recognition,9,sansforgetica,committee,word,Probably seen,1.0,seen,committee,1865,26,difficult to read,10-03-2019 12:06
281,0.0,3.0,True,Non-designer,2,recognition,10,sansforgetica,wrote,word,Probably seen,0.0,not seen,wrong,1656,26,difficult to read,10-03-2019 12:06
282,0.0,3.0,True,Non-designer,2,recognition,11,sansforgetica,differsive,non-word,Probably not seen,1.0,not seen,dictrised,1945,26,difficult to read,10-03-2019 12:06
283,0.0,3.0,True,Non-designer,2,recognition,12,sansforgetica,walls,word,Probably seen,1.0,seen,walls,1807,26,difficult to read,10-03-2019 12:06
284,0.0,3.0,True,Non-designer,2,recognition,13,sansforgetica,stort,non-word,Probably not seen,1.0,not seen,stich,1600,26,difficult to read,10-03-2019 12:06
285,0.0,3.0,True,Non-designer,2,recognition,14,sansforgetica,begar,non-word,Sure not seen,1.0,not seen,becruit,1785,26,difficult to read,10-03-2019 12:06
286,0.0,3.0,True,Non-designer,2,recognition,15,sansforgetica,bridge,word,Probably not seen,1.0,not seen,breath,2591,26,difficult to read,10-03-2019 12:06
287,0.0,3.0,True,Non-designer,2,recognition,16,sansforgetica,created,word,Probably seen,0.0,not seen,create,1594,26,difficult to read,10-03-2019 12:06
288,0.0,4.0,True,Non-designer,1,lexical,1,inputsans,growth,word,Sure word,1.0,,,1658,55,very easy to read,08-03-2019 18:44
289,0.0,4.0,True,Non-designer,1,lexical,2,inputsans,fathed,non-word,Sure non-word,1.0,,,1911,55,very easy to read,08-03-2019 18:44
290,0.0,4.0,True,Non-designer,1,lexical,3,inputsans,promatic,non-word,Sure non-word,1.0,,,1545,55,very easy to read,08-03-2019 18:44
291,0.0,4.0,True,Non-designer,1,lexical,4,inputsans,sountion,non-word,Sure non-word,1.0,,,2240,55,very easy to read,08-03-2019 18:44
292,0.0,4.0,True,Non-designer,1,lexical,5,inputsans,courses,word,Sure word,1.0,,,1512,55,very easy to read,08-03-2019 18:44
293,0.0,4.0,True,Non-designer,1,lexical,6,inputsans,togetits,non-word,Sure non-word,1.0,,,2024,55,very easy to read,08-03-2019 18:44
294,0.0,4.0,True,Non-designer,1,lexical,7,inputsans,population,word,Sure word,1.0,,,1849,55,very easy to read,08-03-2019 18:44
295,0.0,4.0,True,Non-designer,1,lexical,8,inputsans,wealth,word,Sure word,1.0,,,1440,55,very easy to read,08-03-2019 18:44
296,0.0,4.0,True,Non-designer,1,lexical,9,inputsans,entirely,word,Sure word,1.0,,,902,55,very easy to read,08-03-2019 18:44
297,0.0,4.0,True,Non-designer,1,lexical,10,inputsans,amerying,non-word,Sure non-word,1.0,,,1553,55,very easy to read,08-03-2019 18:44
298,0.0,4.0,True,Non-designer,1,lexical,11,inputsans,ordiever,non-word,Sure non-word,1.0,,,2065,55,very easy to read,08-03-2019 18:44
299,0.0,4.0,True,Non-designer,1,lexical,12,inputsans,double,word,Sure word,1.0,,,1359,55,very easy to read,08-03-2019 18:44
300,0.0,4.0,True,Non-designer,1,lexical,13,inputsans,democracy,word,Sure word,1.0,,,1495,55,very easy to read,08-03-2019 18:44
301,0.0,4.0,True,Non-designer,1,lexical,14,inputsans,emposprism,non-word,Sure non-word,1.0,,,1473,55,very easy to read,08-03-2019 18:44
302,0.0,4.0,True,Non-designer,1,lexical,15,inputsans,project,word,Sure word,1.0,,,1352,55,very easy to read,08-03-2019 18:44
303,0.0,4.0,True,Non-designer,1,lexical,16,inputsans,eating,word,Sure word,1.0,,,951,55,very easy to read,08-03-2019 18:44
304,0.0,4.0,True,Non-designer,1,lexical,17,inputsans,ultomobile,non-word,Sure non-word,1.0,,,1799,55,very easy to read,08-03-2019 18:44
305,0.0,4.0,True,Non-designer,1,lexical,18,inputsans,plenty,word,Sure word,1.0,,,1592,55,very easy to read,08-03-2019 18:44
306,0.0,4.0,True,Non-designer,1,lexical,19,inputsans,minsuit,non-word,Sure non-word,1.0,,,1545,55,very easy to read,08-03-2019 18:44
307,0.0,4.0,True,Non-designer,1,lexical,20,inputsans,fielve,non-word,Sure non-word,1.0,,,1050,55,very easy to read,08-03-2019 18:44
308,0.0,4.0,True,Non-designer,1,recognition,1,inputsans,fielve,non-word,Probably not seen,0.0,seen,fielve,2895,55,very easy to read,08-03-2019 18:44
309,0.0,4.0,True,Non-designer,1,recognition,2,inputsans,ordiever,non-word,Sure not seen,0.0,seen,ordiever,1800,55,very easy to read,08-03-2019 18:44
310,0.0,4.0,True,Non-designer,1,recognition,3,inputsans,population,word,Probably seen,1.0,seen,population,1671,55,very easy to read,08-03-2019 18:44
311,0.0,4.0,True,Non-designer,1,recognition,4,inputsans,environment,word,Probably not seen,1.0,not seen,entirely,2433,55,very easy to read,08-03-2019 18:44
312,0.0,4.0,True,Non-designer,1,recognition,5,inputsans,emposprism,non-word,Sure not seen,0.0,seen,emposprism,3112,55,very easy to read,08-03-2019 18:44
313,0.0,4.0,True,Non-designer,1,recognition,6,inputsans,weapons,word,Sure not seen,1.0,not seen,wealth,2370,55,very easy to read,08-03-2019 18:44
314,0.0,4.0,True,Non-designer,1,recognition,7,inputsans,mircract,non-word,Sure not seen,1.0,not seen,minsuit,1702,55,very easy to read,08-03-2019 18:44
315,0.0,4.0,True,Non-designer,1,recognition,8,inputsans,democracy,word,Probably not seen,0.0,seen,democracy,2768,55,very easy to read,08-03-2019 18:44
316,0.0,4.0,True,Non-designer,1,recognition,9,inputsans,fathed,non-word,Probably not seen,0.0,seen,fathed,1848,55,very easy to read,08-03-2019 18:44
317,0.0,4.0,True,Non-designer,1,recognition,10,inputsans,sovess,non-word,Sure not seen,1.0,not seen,sountion,1903,55,very easy to read,08-03-2019 18:44
318,0.0,4.0,True,Non-designer,1,recognition,11,inputsans,promoring,non-word,Sure not seen,1.0,not seen,promatic,1657,55,very easy to read,08-03-2019 18:44
319,0.0,4.0,True,Non-designer,1,recognition,12,inputsans,guess,word,Sure not seen,1.0,not seen,growth,1752,55,very easy to read,08-03-2019 18:44
320,0.0,4.0,True,Non-designer,1,recognition,13,inputsans,umbrated,non-word,Sure not seen,1.0,not seen,ultomobile,1985,55,very easy to read,08-03-2019 18:44
321,0.0,4.0,True,Non-designer,1,recognition,14,inputsans,plenty,word,Probably not seen,0.0,seen,plenty,2448,55,very easy to read,08-03-2019 18:44
322,0.0,4.0,True,Non-designer,1,recognition,15,inputsans,court,word,Sure not seen,1.0,not seen,courses,1911,55,very easy to read,08-03-2019 18:44
323,0.0,4.0,True,Non-designer,1,recognition,16,inputsans,project,word,Probably seen,1.0,seen,project,2104,55,very easy to read,08-03-2019 18:44
324,0.0,4.0,True,Non-designer,2,lexical,1,sansforgetica,enreloping,non-word,Sure non-word,1.0,,,2824,38,very difficult to read,08-03-2019 18:44
325,0.0,4.0,True,Non-designer,2,lexical,2,sansforgetica,announced,word,Sure word,1.0,,,1953,38,very difficult to read,08-03-2019 18:44
326,0.0,4.0,True,Non-designer,2,lexical,3,sansforgetica,popular,word,Sure word,1.0,,,1735,38,very difficult to read,08-03-2019 18:44
327,0.0,4.0,True,Non-designer,2,lexical,4,sansforgetica,dictrised,non-word,Sure non-word,1.0,,,4528,38,very difficult to read,08-03-2019 18:44
328,0.0,4.0,True,Non-designer,2,lexical,5,sansforgetica,nuccest,non-word,Sure non-word,1.0,,,1401,38,very difficult to read,08-03-2019 18:44
329,0.0,4.0,True,Non-designer,2,lexical,6,sansforgetica,character,word,Sure word,1.0,,,2409,38,very difficult to read,08-03-2019 18:44
330,0.0,4.0,True,Non-designer,2,lexical,7,sansforgetica,looks,word,Sure word,1.0,,,2352,38,very difficult to read,08-03-2019 18:44
331,0.0,4.0,True,Non-designer,2,lexical,8,sansforgetica,sidlater,non-word,Sure non-word,1.0,,,2118,38,very difficult to read,08-03-2019 18:44
332,0.0,4.0,True,Non-designer,2,lexical,9,sansforgetica,throure,non-word,Sure non-word,1.0,,,2441,38,very difficult to read,08-03-2019 18:44
333,0.0,4.0,True,Non-designer,2,lexical,10,sansforgetica,plans,word,Sure word,1.0,,,1705,38,very difficult to read,08-03-2019 18:44
334,0.0,4.0,True,Non-designer,2,lexical,11,sansforgetica,venerweared,non-word,Sure non-word,1.0,,,2176,38,very difficult to read,08-03-2019 18:44
335,0.0,4.0,True,Non-designer,2,lexical,12,sansforgetica,hidnectes,non-word,Sure non-word,1.0,,,2728,38,very difficult to read,08-03-2019 18:44
336,0.0,4.0,True,Non-designer,2,lexical,13,sansforgetica,holts,non-word,Sure word,0.0,,,3423,38,very difficult to read,08-03-2019 18:44
337,0.0,4.0,True,Non-designer,2,lexical,14,sansforgetica,health,word,Sure word,1.0,,,1136,38,very difficult to read,08-03-2019 18:44
338,0.0,4.0,True,Non-designer,2,lexical,15,sansforgetica,giving,word,Sure word,1.0,,,930,38,very difficult to read,08-03-2019 18:44
339,0.0,4.0,True,Non-designer,2,lexical,16,sansforgetica,conandere,non-word,Sure non-word,1.0,,,1982,38,very difficult to read,08-03-2019 18:44
340,0.0,4.0,True,Non-designer,2,lexical,17,sansforgetica,investment,word,Sure word,1.0,,,1808,38,very difficult to read,08-03-2019 18:44
341,0.0,4.0,True,Non-designer,2,lexical,18,sansforgetica,thirty,word,Sure word,1.0,,,2009,38,very difficult to read,08-03-2019 18:44
342,0.0,4.0,True,Non-designer,2,lexical,19,sansforgetica,square,word,Sure word,1.0,,,1752,38,very difficult to read,08-03-2019 18:44
343,0.0,4.0,True,Non-designer,2,lexical,20,sansforgetica,scratious,non-word,Sure non-word,1.0,,,2039,38,very difficult to read,08-03-2019 18:44
344,0.0,4.0,True,Non-designer,2,recognition,1,sansforgetica,sidlater,non-word,Probably seen,1.0,seen,sidlater,2473,38,very difficult to read,08-03-2019 18:44
345,0.0,4.0,True,Non-designer,2,recognition,2,sansforgetica,plans,word,Probably not seen,0.0,seen,plans,1703,38,very difficult to read,08-03-2019 18:44
346,0.0,4.0,True,Non-designer,2,recognition,3,sansforgetica,holts,non-word,Probably seen,1.0,seen,holts,1569,38,very difficult to read,08-03-2019 18:44
347,0.0,4.0,True,Non-designer,2,recognition,4,sansforgetica,announced,word,Probably seen,1.0,seen,announced,1616,38,very difficult to read,08-03-2019 18:44
348,0.0,4.0,True,Non-designer,2,recognition,5,sansforgetica,thrughts,non-word,Sure not seen,1.0,not seen,throure,2210,38,very difficult to read,08-03-2019 18:44
349,0.0,4.0,True,Non-designer,2,recognition,6,sansforgetica,dictrised,non-word,Sure not seen,0.0,seen,dictrised,1830,38,very difficult to read,08-03-2019 18:44
350,0.0,4.0,True,Non-designer,2,recognition,7,sansforgetica,entervished,non-word,Probably not seen,1.0,not seen,enreloping,1967,38,very difficult to read,08-03-2019 18:44
351,0.0,4.0,True,Non-designer,2,recognition,8,sansforgetica,popular,word,Probably seen,1.0,seen,popular,1657,38,very difficult to read,08-03-2019 18:44
352,0.0,4.0,True,Non-designer,2,recognition,9,sansforgetica,hidnectes,non-word,Probably not seen,0.0,seen,hidnectes,1983,38,very difficult to read,08-03-2019 18:44
353,0.0,4.0,True,Non-designer,2,recognition,10,sansforgetica,charge,word,Probably not seen,1.0,not seen,character,2064,38,very difficult to read,08-03-2019 18:44
354,0.0,4.0,True,Non-designer,2,recognition,11,sansforgetica,health,word,Sure seen,1.0,seen,health,1752,38,very difficult to read,08-03-2019 18:44
355,0.0,4.0,True,Non-designer,2,recognition,12,sansforgetica,staff,word,Probably not seen,1.0,not seen,square,2065,38,very difficult to read,08-03-2019 18:44
356,0.0,4.0,True,Non-designer,2,recognition,13,sansforgetica,verection,non-word,Probably seen,0.0,not seen,venerweared,2584,38,very difficult to read,08-03-2019 18:44
357,0.0,4.0,True,Non-designer,2,recognition,14,sansforgetica,those,word,Probably not seen,1.0,not seen,thirty,1823,38,very difficult to read,08-03-2019 18:44
358,0.0,4.0,True,Non-designer,2,recognition,15,sansforgetica,nucking,non-word,Sure not seen,1.0,not seen,nuccest,2456,38,very difficult to read,08-03-2019 18:44
359,0.0,4.0,True,Non-designer,2,recognition,16,sansforgetica,glass,word,Sure not seen,1.0,not seen,giving,1880,38,very difficult to read,08-03-2019 18:44
360,0.0,5.0,True,Non-designer,1,lexical,1,sansforgetica,streets,word,Sure word,1.0,,,2152,63,difficult to read,08-03-2019 17:36
361,0.0,5.0,True,Non-designer,1,lexical,2,sansforgetica,steet,non-word,Sure non-word,1.0,,,3040,63,difficult to read,08-03-2019 17:36
362,0.0,5.0,True,Non-designer,1,lexical,3,sansforgetica,papid,non-word,Sure non-word,1.0,,,1529,63,difficult to read,08-03-2019 17:36
363,0.0,5.0,True,Non-designer,1,lexical,4,sansforgetica,division,word,Sure word,1.0,,,1905,63,difficult to read,08-03-2019 17:36
364,0.0,5.0,True,Non-designer,1,lexical,5,sansforgetica,merely,word,Sure word,1.0,,,1312,63,difficult to read,08-03-2019 17:36
365,0.0,5.0,True,Non-designer,1,lexical,6,sansforgetica,undonestes,non-word,Sure non-word,1.0,,,2000,63,difficult to read,08-03-2019 17:36
366,0.0,5.0,True,Non-designer,1,lexical,7,sansforgetica,wourt,non-word,Sure non-word,1.0,,,1602,63,difficult to read,08-03-2019 17:36
367,0.0,5.0,True,Non-designer,1,lexical,8,sansforgetica,making,word,Sure word,1.0,,,1710,63,difficult to read,08-03-2019 17:36
368,0.0,5.0,True,Non-designer,1,lexical,9,sansforgetica,desping,non-word,Sure non-word,1.0,,,2327,63,difficult to read,08-03-2019 17:36
369,0.0,5.0,True,Non-designer,1,lexical,10,sansforgetica,without,word,Sure word,1.0,,,1521,63,difficult to read,08-03-2019 17:36
370,0.0,5.0,True,Non-designer,1,lexical,11,sansforgetica,impeady,non-word,Sure non-word,1.0,,,2079,63,difficult to read,08-03-2019 17:36
371,0.0,5.0,True,Non-designer,1,lexical,12,sansforgetica,pigeboy,non-word,Sure non-word,1.0,,,1273,63,difficult to read,08-03-2019 17:36
372,0.0,5.0,True,Non-designer,1,lexical,13,sansforgetica,realicult,non-word,Sure non-word,1.0,,,1343,63,difficult to read,08-03-2019 17:36
373,0.0,5.0,True,Non-designer,1,lexical,14,sansforgetica,success,word,Sure word,1.0,,,1545,63,difficult to read,08-03-2019 17:36
374,0.0,5.0,True,Non-designer,1,lexical,15,sansforgetica,surprise,word,Sure word,1.0,,,1056,63,difficult to read,08-03-2019 17:36
375,0.0,5.0,True,Non-designer,1,lexical,16,sansforgetica,stood,word,Sure word,1.0,,,1127,63,difficult to read,08-03-2019 17:36
376,0.0,5.0,True,Non-designer,1,lexical,17,sansforgetica,hysturably,non-word,Sure non-word,1.0,,,2080,63,difficult to read,08-03-2019 17:36
377,0.0,5.0,True,Non-designer,1,lexical,18,sansforgetica,considered,word,Sure word,1.0,,,4039,63,difficult to read,08-03-2019 17:36
378,0.0,5.0,True,Non-designer,1,lexical,19,sansforgetica,frangee,non-word,Sure non-word,1.0,,,1528,63,difficult to read,08-03-2019 17:36
379,0.0,5.0,True,Non-designer,1,lexical,20,sansforgetica,company,word,Sure word,1.0,,,1538,63,difficult to read,08-03-2019 17:36
380,0.0,5.0,True,Non-designer,1,recognition,1,sansforgetica,message,word,Probably not seen,1.0,not seen,merely,3312,63,difficult to read,08-03-2019 17:36
381,0.0,5.0,True,Non-designer,1,recognition,2,sansforgetica,stich,non-word,Probably not seen,1.0,not seen,steet,1622,63,difficult to read,08-03-2019 17:36
382,0.0,5.0,True,Non-designer,1,recognition,3,sansforgetica,desposed,non-word,Probably seen,0.0,not seen,desping,1873,63,difficult to read,08-03-2019 17:36
383,0.0,5.0,True,Non-designer,1,recognition,4,sansforgetica,hysturably,non-word,Probably seen,1.0,seen,hysturably,3543,63,difficult to read,08-03-2019 17:36
384,0.0,5.0,True,Non-designer,1,recognition,5,sansforgetica,streets,word,Sure seen,1.0,seen,streets,1632,63,difficult to read,08-03-2019 17:36
385,0.0,5.0,True,Non-designer,1,recognition,6,sansforgetica,stood,word,Probably seen,1.0,seen,stood,1737,63,difficult to read,08-03-2019 17:36
386,0.0,5.0,True,Non-designer,1,recognition,7,sansforgetica,pigeboy,non-word,Sure seen,1.0,seen,pigeboy,2088,63,difficult to read,08-03-2019 17:36
387,0.0,5.0,True,Non-designer,1,recognition,8,sansforgetica,papsy,non-word,Probably not seen,1.0,not seen,papid,2103,63,difficult to read,08-03-2019 17:36
388,0.0,5.0,True,Non-designer,1,recognition,9,sansforgetica,women,word,Probably not seen,1.0,not seen,without,1808,63,difficult to read,08-03-2019 17:36
389,0.0,5.0,True,Non-designer,1,recognition,10,sansforgetica,contact,word,Probably not seen,1.0,not seen,considered,1433,63,difficult to read,08-03-2019 17:36
390,0.0,5.0,True,Non-designer,1,recognition,11,sansforgetica,surprise,word,Probably seen,1.0,seen,surprise,1552,63,difficult to read,08-03-2019 17:36
391,0.0,5.0,True,Non-designer,1,recognition,12,sansforgetica,undouring,non-word,Sure not seen,1.0,not seen,undonestes,2447,63,difficult to read,08-03-2019 17:36
392,0.0,5.0,True,Non-designer,1,recognition,13,sansforgetica,company,word,Probably not seen,0.0,seen,company,3425,63,difficult to read,08-03-2019 17:36
393,0.0,5.0,True,Non-designer,1,recognition,14,sansforgetica,wourt,non-word,Probably seen,1.0,seen,wourt,2279,63,difficult to read,08-03-2019 17:36
394,0.0,5.0,True,Non-designer,1,recognition,15,sansforgetica,doctor,word,Sure not seen,1.0,not seen,division,2000,63,difficult to read,08-03-2019 17:36
395,0.0,5.0,True,Non-designer,1,recognition,16,sansforgetica,impeady,non-word,Probably seen,1.0,seen,impeady,1857,63,difficult to read,08-03-2019 17:36
396,0.0,5.0,True,Non-designer,2,lexical,1,inputsans,running,word,Sure word,1.0,,,2352,71,easy to read,08-03-2019 17:36
397,0.0,5.0,True,Non-designer,2,lexical,2,inputsans,actually,word,Sure word,1.0,,,1610,71,easy to read,08-03-2019 17:36
398,0.0,5.0,True,Non-designer,2,lexical,3,inputsans,structure,word,Sure word,1.0,,,1109,71,easy to read,08-03-2019 17:36
399,0.0,5.0,True,Non-designer,2,lexical,4,inputsans,create,word,Sure word,1.0,,,1250,71,easy to read,08-03-2019 17:36
400,0.0,5.0,True,Non-designer,2,lexical,5,inputsans,leading,word,Sure word,1.0,,,1424,71,easy to read,08-03-2019 17:36
401,0.0,5.0,True,Non-designer,2,lexical,6,inputsans,given,word,Sure word,1.0,,,903,71,easy to read,08-03-2019 17:36
402,0.0,5.0,True,Non-designer,2,lexical,7,inputsans,plants,word,Sure word,1.0,,,1108,71,easy to read,08-03-2019 17:36
403,0.0,5.0,True,Non-designer,2,lexical,8,inputsans,crevided,non-word,Sure non-word,1.0,,,1767,71,easy to read,08-03-2019 17:36
404,0.0,5.0,True,Non-designer,2,lexical,9,inputsans,libertably,non-word,Sure non-word,1.0,,,1313,71,easy to read,08-03-2019 17:36
405,0.0,5.0,True,Non-designer,2,lexical,10,inputsans,occational,non-word,Sure non-word,1.0,,,1407,71,easy to read,08-03-2019 17:36
406,0.0,5.0,True,Non-designer,2,lexical,11,inputsans,littletely,non-word,Sure non-word,1.0,,,1416,71,easy to read,08-03-2019 17:36
407,0.0,5.0,True,Non-designer,2,lexical,12,inputsans,preeding,non-word,Sure non-word,1.0,,,1273,71,easy to read,08-03-2019 17:36
408,0.0,5.0,True,Non-designer,2,lexical,13,inputsans,actual,word,Sure word,1.0,,,1799,71,easy to read,08-03-2019 17:36
409,0.0,5.0,True,Non-designer,2,lexical,14,inputsans,strantely,non-word,Sure non-word,1.0,,,2127,71,easy to read,08-03-2019 17:36
410,0.0,5.0,True,Non-designer,2,lexical,15,inputsans,share,word,Sure word,1.0,,,1785,71,easy to read,08-03-2019 17:36
411,0.0,5.0,True,Non-designer,2,lexical,16,inputsans,durprology,non-word,Sure non-word,1.0,,,1937,71,easy to read,08-03-2019 17:36
412,0.0,5.0,True,Non-designer,2,lexical,17,inputsans,ruscle,non-word,Sure non-word,1.0,,,1712,71,easy to read,08-03-2019 17:36
413,0.0,5.0,True,Non-designer,2,lexical,18,inputsans,outsing,non-word,Sure non-word,1.0,,,1193,71,easy to read,08-03-2019 17:36
414,0.0,5.0,True,Non-designer,2,lexical,19,inputsans,directly,word,Sure word,1.0,,,1638,71,easy to read,08-03-2019 17:36
415,0.0,5.0,True,Non-designer,2,lexical,20,inputsans,opergence,non-word,Sure non-word,1.0,,,2055,71,easy to read,08-03-2019 17:36
416,0.0,5.0,True,Non-designer,2,recognition,1,inputsans,director,word,Sure not seen,1.0,not seen,directly,2456,71,easy to read,08-03-2019 17:36
417,0.0,5.0,True,Non-designer,2,recognition,2,inputsans,sharp,word,Sure not seen,1.0,not seen,share,1712,71,easy to read,08-03-2019 17:36
418,0.0,5.0,True,Non-designer,2,recognition,3,inputsans,durprology,non-word,Sure seen,1.0,seen,durprology,2112,71,easy to read,08-03-2019 17:36
419,0.0,5.0,True,Non-designer,2,recognition,4,inputsans,learn,word,Sure seen,0.0,not seen,leading,1593,71,easy to read,08-03-2019 17:36
420,0.0,5.0,True,Non-designer,2,recognition,5,inputsans,rutogement,non-word,Sure not seen,1.0,not seen,ruscle,2504,71,easy to read,08-03-2019 17:36
421,0.0,5.0,True,Non-designer,2,recognition,6,inputsans,outting,non-word,Probably not seen,1.0,not seen,outsing,2103,71,easy to read,08-03-2019 17:36
422,0.0,5.0,True,Non-designer,2,recognition,7,inputsans,opergence,non-word,Probably seen,1.0,seen,opergence,1951,71,easy to read,08-03-2019 17:36
423,0.0,5.0,True,Non-designer,2,recognition,8,inputsans,actually,word,Sure seen,1.0,seen,actually,1608,71,easy to read,08-03-2019 17:36
424,0.0,5.0,True,Non-designer,2,recognition,9,inputsans,actual,word,Sure not seen,0.0,seen,actual,3449,71,easy to read,08-03-2019 17:36
425,0.0,5.0,True,Non-designer,2,recognition,10,inputsans,strantely,non-word,Sure seen,1.0,seen,strantely,3080,71,easy to read,08-03-2019 17:36
426,0.0,5.0,True,Non-designer,2,recognition,11,inputsans,given,word,Probably seen,1.0,seen,given,1664,71,easy to read,08-03-2019 17:36
427,0.0,5.0,True,Non-designer,2,recognition,12,inputsans,littor,non-word,Sure not seen,1.0,not seen,littletely,2055,71,easy to read,08-03-2019 17:36
428,0.0,5.0,True,Non-designer,2,recognition,13,inputsans,creviver,non-word,Probably not seen,1.0,not seen,crevided,1865,71,easy to read,08-03-2019 17:36
429,0.0,5.0,True,Non-designer,2,recognition,14,inputsans,preeding,non-word,Probably not seen,0.0,seen,preeding,3510,71,easy to read,08-03-2019 17:36
430,0.0,5.0,True,Non-designer,2,recognition,15,inputsans,create,word,Sure seen,1.0,seen,create,1703,71,easy to read,08-03-2019 17:36
431,0.0,5.0,True,Non-designer,2,recognition,16,inputsans,radio,word,Sure not seen,1.0,not seen,running,1815,71,easy to read,08-03-2019 17:36
432,0.0,6.0,True,Non-designer,1,lexical,1,sansforgetica,imputives,non-word,Sure non-word,1.0,,,2752,40,difficult to read,06-03-2019 17:18
433,0.0,6.0,True,Non-designer,1,lexical,2,sansforgetica,relitical,non-word,Sure non-word,1.0,,,1928,40,difficult to read,06-03-2019 17:18
434,0.0,6.0,True,Non-designer,1,lexical,3,sansforgetica,enemy,word,Sure word,1.0,,,3153,40,difficult to read,06-03-2019 17:18
435,0.0,6.0,True,Non-designer,1,lexical,4,sansforgetica,cross,word,Sure word,1.0,,,1312,40,difficult to read,06-03-2019 17:18
436,0.0,6.0,True,Non-designer,1,lexical,5,sansforgetica,history,word,Sure word,1.0,,,937,40,difficult to read,06-03-2019 17:18
437,0.0,6.0,True,Non-designer,1,lexical,6,sansforgetica,chapter,word,Sure word,1.0,,,990,40,difficult to read,06-03-2019 17:18
438,0.0,6.0,True,Non-designer,1,lexical,7,sansforgetica,memand,non-word,Sure non-word,1.0,,,2177,40,difficult to read,06-03-2019 17:18
439,0.0,6.0,True,Non-designer,1,lexical,8,sansforgetica,fildle,non-word,Sure non-word,1.0,,,2032,40,difficult to read,06-03-2019 17:18
440,0.0,6.0,True,Non-designer,1,lexical,9,sansforgetica,attempt,word,Sure word,1.0,,,1648,40,difficult to read,06-03-2019 17:18
441,0.0,6.0,True,Non-designer,1,lexical,10,sansforgetica,nortinge,non-word,Sure non-word,1.0,,,1767,40,difficult to read,06-03-2019 17:18
442,0.0,6.0,True,Non-designer,1,lexical,11,sansforgetica,gensibility,non-word,Sure non-word,1.0,,,2033,40,difficult to read,06-03-2019 17:18
443,0.0,6.0,True,Non-designer,1,lexical,12,sansforgetica,meant,word,Sure word,1.0,,,1624,40,difficult to read,06-03-2019 17:18
444,0.0,6.0,True,Non-designer,1,lexical,13,sansforgetica,confersate,non-word,Sure non-word,1.0,,,2296,40,difficult to read,06-03-2019 17:18
445,0.0,6.0,True,Non-designer,1,lexical,14,sansforgetica,descussed,non-word,Sure non-word,1.0,,,1586,40,difficult to read,06-03-2019 17:18
446,0.0,6.0,True,Non-designer,1,lexical,15,sansforgetica,noise,word,Sure word,1.0,,,1693,40,difficult to read,06-03-2019 17:18
447,0.0,6.0,True,Non-designer,1,lexical,16,sansforgetica,named,word,Sure word,1.0,,,1177,40,difficult to read,06-03-2019 17:18
448,0.0,6.0,True,Non-designer,1,lexical,17,sansforgetica,parliament,word,Sure word,1.0,,,1911,40,difficult to read,06-03-2019 17:18
449,0.0,6.0,True,Non-designer,1,lexical,18,sansforgetica,argued,word,Sure word,1.0,,,1082,40,difficult to read,06-03-2019 17:18
450,0.0,6.0,True,Non-designer,1,lexical,19,sansforgetica,increved,non-word,Sure non-word,1.0,,,2286,40,difficult to read,06-03-2019 17:18
451,0.0,6.0,True,Non-designer,1,lexical,20,sansforgetica,counticks,non-word,Sure non-word,1.0,,,1393,40,difficult to read,06-03-2019 17:18
452,0.0,6.0,True,Non-designer,1,recognition,1,sansforgetica,gereed,non-word,Probably not seen,1.0,not seen,gensibility,3239,40,difficult to read,06-03-2019 17:18
453,0.0,6.0,True,Non-designer,1,recognition,2,sansforgetica,argued,word,Sure seen,1.0,seen,argued,1855,40,difficult to read,06-03-2019 17:18
454,0.0,6.0,True,Non-designer,1,recognition,3,sansforgetica,incriance,non-word,Sure not seen,1.0,not seen,increved,2857,40,difficult to read,06-03-2019 17:18
455,0.0,6.0,True,Non-designer,1,recognition,4,sansforgetica,chapter,word,Sure seen,1.0,seen,chapter,2368,40,difficult to read,06-03-2019 17:18
456,0.0,6.0,True,Non-designer,1,recognition,5,sansforgetica,nortinge,non-word,Sure seen,1.0,seen,nortinge,2329,40,difficult to read,06-03-2019 17:18
457,0.0,6.0,True,Non-designer,1,recognition,6,sansforgetica,enemy,word,Probably seen,1.0,seen,enemy,2294,40,difficult to read,06-03-2019 17:18
458,0.0,6.0,True,Non-designer,1,recognition,7,sansforgetica,particular,word,Probably seen,0.0,not seen,parliament,1496,40,difficult to read,06-03-2019 17:18
459,0.0,6.0,True,Non-designer,1,recognition,8,sansforgetica,desing,non-word,Probably not seen,1.0,not seen,descussed,2065,40,difficult to read,06-03-2019 17:18
460,0.0,6.0,True,Non-designer,1,recognition,9,sansforgetica,attention,word,Probably seen,0.0,not seen,attempt,1816,40,difficult to read,06-03-2019 17:18
461,0.0,6.0,True,Non-designer,1,recognition,10,sansforgetica,imputives,non-word,Sure seen,1.0,seen,imputives,2000,40,difficult to read,06-03-2019 17:18
462,0.0,6.0,True,Non-designer,1,recognition,11,sansforgetica,counticks,non-word,Sure not seen,0.0,seen,counticks,2536,40,difficult to read,06-03-2019 17:18
463,0.0,6.0,True,Non-designer,1,recognition,12,sansforgetica,names,word,Probably seen,0.0,not seen,named,2168,40,difficult to read,06-03-2019 17:18
464,0.0,6.0,True,Non-designer,1,recognition,13,sansforgetica,fildle,non-word,Sure seen,1.0,seen,fildle,3800,40,difficult to read,06-03-2019 17:18
465,0.0,6.0,True,Non-designer,1,recognition,14,sansforgetica,crowd,word,Probably seen,0.0,not seen,cross,1984,40,difficult to read,06-03-2019 17:18
466,0.0,6.0,True,Non-designer,1,recognition,15,sansforgetica,memated,non-word,Sure seen,0.0,not seen,memand,2191,40,difficult to read,06-03-2019 17:18
467,0.0,6.0,True,Non-designer,1,recognition,16,sansforgetica,history,word,Probably not seen,0.0,seen,history,2232,40,difficult to read,06-03-2019 17:18
468,0.0,6.0,True,Non-designer,2,lexical,1,inputsans,asking,word,Sure word,1.0,,,2201,36,difficult to read,06-03-2019 17:18
469,0.0,6.0,True,Non-designer,2,lexical,2,inputsans,foilly,non-word,Sure non-word,1.0,,,1687,36,difficult to read,06-03-2019 17:18
470,0.0,6.0,True,Non-designer,2,lexical,3,inputsans,project,word,Sure word,1.0,,,1513,36,difficult to read,06-03-2019 17:18
471,0.0,6.0,True,Non-designer,2,lexical,4,inputsans,revernment,non-word,Sure non-word,1.0,,,2288,36,difficult to read,06-03-2019 17:18
472,0.0,6.0,True,Non-designer,2,lexical,5,inputsans,entervished,non-word,Sure non-word,1.0,,,1218,36,difficult to read,06-03-2019 17:18
473,0.0,6.0,True,Non-designer,2,lexical,6,inputsans,fairly,word,Sure word,1.0,,,2301,36,difficult to read,06-03-2019 17:18
474,0.0,6.0,True,Non-designer,2,lexical,7,inputsans,something,word,Sure word,1.0,,,1423,36,difficult to read,06-03-2019 17:18
475,0.0,6.0,True,Non-designer,2,lexical,8,inputsans,fament,non-word,Sure non-word,1.0,,,2794,36,difficult to read,06-03-2019 17:18
476,0.0,6.0,True,Non-designer,2,lexical,9,inputsans,brives,non-word,Sure non-word,1.0,,,3950,36,difficult to read,06-03-2019 17:18
477,0.0,6.0,True,Non-designer,2,lexical,10,inputsans,calls,word,Sure word,1.0,,,2034,36,difficult to read,06-03-2019 17:18
478,0.0,6.0,True,Non-designer,2,lexical,11,inputsans,holts,non-word,Sure non-word,1.0,,,2471,36,difficult to read,06-03-2019 17:18
479,0.0,6.0,True,Non-designer,2,lexical,12,inputsans,decision,word,Sure word,1.0,,,1967,36,difficult to read,06-03-2019 17:18
480,0.0,6.0,True,Non-designer,2,lexical,13,inputsans,polloways,non-word,Sure non-word,1.0,,,1858,36,difficult to read,06-03-2019 17:18
481,0.0,6.0,True,Non-designer,2,lexical,14,inputsans,contem,non-word,Sure non-word,1.0,,,1311,36,difficult to read,06-03-2019 17:18
482,0.0,6.0,True,Non-designer,2,lexical,15,inputsans,seriously,word,Sure word,1.0,,,1656,36,difficult to read,06-03-2019 17:18
483,0.0,6.0,True,Non-designer,2,lexical,16,inputsans,sometimes,word,Sure word,1.0,,,977,36,difficult to read,06-03-2019 17:18
484,0.0,6.0,True,Non-designer,2,lexical,17,inputsans,amonged,non-word,Sure non-word,1.0,,,1847,36,difficult to read,06-03-2019 17:18
485,0.0,6.0,True,Non-designer,2,lexical,18,inputsans,restratians,non-word,Sure non-word,1.0,,,1057,36,difficult to read,06-03-2019 17:18
486,0.0,6.0,True,Non-designer,2,lexical,19,inputsans,attack,word,Sure word,1.0,,,1920,36,difficult to read,06-03-2019 17:18
487,0.0,6.0,True,Non-designer,2,lexical,20,inputsans,moved,word,Sure word,1.0,,,1056,36,difficult to read,06-03-2019 17:18
488,0.0,6.0,True,Non-designer,2,recognition,1,inputsans,entervished,non-word,Probably not seen,0.0,seen,entervished,5136,36,difficult to read,06-03-2019 17:18
489,0.0,6.0,True,Non-designer,2,recognition,2,inputsans,deeply,word,Probably not seen,1.0,not seen,decision,1440,36,difficult to read,06-03-2019 17:18
490,0.0,6.0,True,Non-designer,2,recognition,3,inputsans,something,word,Sure seen,1.0,seen,something,1593,36,difficult to read,06-03-2019 17:18
491,0.0,6.0,True,Non-designer,2,recognition,4,inputsans,riddly,non-word,Probably seen,0.0,not seen,revernment,2230,36,difficult to read,06-03-2019 17:18
492,0.0,6.0,True,Non-designer,2,recognition,5,inputsans,holts,non-word,Probably seen,1.0,seen,holts,2522,36,difficult to read,06-03-2019 17:18
493,0.0,6.0,True,Non-designer,2,recognition,6,inputsans,restratians,non-word,Sure seen,1.0,seen,restratians,2319,36,difficult to read,06-03-2019 17:18
494,0.0,6.0,True,Non-designer,2,recognition,7,inputsans,foldness,non-word,Sure not seen,1.0,not seen,foilly,2000,36,difficult to read,06-03-2019 17:18
495,0.0,6.0,True,Non-designer,2,recognition,8,inputsans,atmosphere,word,Sure not seen,1.0,not seen,attack,2327,36,difficult to read,06-03-2019 17:18
496,0.0,6.0,True,Non-designer,2,recognition,9,inputsans,asking,word,Probably not seen,0.0,seen,asking,2393,36,difficult to read,06-03-2019 17:18
497,0.0,6.0,True,Non-designer,2,recognition,10,inputsans,polloways,non-word,Probably seen,1.0,seen,polloways,1920,36,difficult to read,06-03-2019 17:18
498,0.0,6.0,True,Non-designer,2,recognition,11,inputsans,anandations,non-word,Probably not seen,1.0,not seen,amonged,3279,36,difficult to read,06-03-2019 17:18
499,0.0,6.0,True,Non-designer,2,recognition,12,inputsans,promised,word,Probably seen,0.0,not seen,project,1641,36,difficult to read,06-03-2019 17:18
500,0.0,6.0,True,Non-designer,2,recognition,13,inputsans,continated,non-word,Probably not seen,1.0,not seen,contem,1952,36,difficult to read,06-03-2019 17:18
501,0.0,6.0,True,Non-designer,2,recognition,14,inputsans,somewhat,word,Probably not seen,1.0,not seen,sometimes,1799,36,difficult to read,06-03-2019 17:18
502,0.0,6.0,True,Non-designer,2,recognition,15,inputsans,seriously,word,Probably seen,1.0,seen,seriously,1809,36,difficult to read,06-03-2019 17:18
503,0.0,6.0,True,Non-designer,2,recognition,16,inputsans,moved,word,Probably not seen,0.0,seen,moved,4544,36,difficult to read,06-03-2019 17:18
504,0.0,7.0,True,Non-designer,1,lexical,1,sansforgetica,pollowing,non-word,Sure non-word,1.0,,,5288,60,difficult to read,06-03-2019 17:13
505,0.0,7.0,True,Non-designer,1,lexical,2,sansforgetica,written,word,Sure word,1.0,,,2201,60,difficult to read,06-03-2019 17:13
506,0.0,7.0,True,Non-designer,1,lexical,3,sansforgetica,change,word,Sure word,1.0,,,1940,60,difficult to read,06-03-2019 17:13
507,0.0,7.0,True,Non-designer,1,lexical,4,sansforgetica,every,word,Sure word,1.0,,,1421,60,difficult to read,06-03-2019 17:13
508,0.0,7.0,True,Non-designer,1,lexical,5,sansforgetica,suggers,non-word,Sure non-word,1.0,,,1856,60,difficult to read,06-03-2019 17:13
509,0.0,7.0,True,Non-designer,1,lexical,6,sansforgetica,undublisted,non-word,Sure non-word,1.0,,,2407,60,difficult to read,06-03-2019 17:13
510,0.0,7.0,True,Non-designer,1,lexical,7,sansforgetica,sligince,non-word,Sure non-word,1.0,,,1561,60,difficult to read,06-03-2019 17:13
511,0.0,7.0,True,Non-designer,1,lexical,8,sansforgetica,outside,word,Sure word,1.0,,,1896,60,difficult to read,06-03-2019 17:13
512,0.0,7.0,True,Non-designer,1,lexical,9,sansforgetica,vegimasion,non-word,Sure non-word,1.0,,,2256,60,difficult to read,06-03-2019 17:13
513,0.0,7.0,True,Non-designer,1,lexical,10,sansforgetica,sugmaling,non-word,Sure non-word,1.0,,,1286,60,difficult to read,06-03-2019 17:13
514,0.0,7.0,True,Non-designer,1,lexical,11,sansforgetica,trust,word,Sure word,1.0,,,1715,60,difficult to read,06-03-2019 17:13
515,0.0,7.0,True,Non-designer,1,lexical,12,sansforgetica,sister,word,Sure word,1.0,,,1278,60,difficult to read,06-03-2019 17:13
516,0.0,7.0,True,Non-designer,1,lexical,13,sansforgetica,actual,word,Sure word,1.0,,,969,60,difficult to read,06-03-2019 17:13
517,0.0,7.0,True,Non-designer,1,lexical,14,sansforgetica,implected,non-word,Sure non-word,1.0,,,1847,60,difficult to read,06-03-2019 17:13
518,0.0,7.0,True,Non-designer,1,lexical,15,sansforgetica,complex,word,Sure word,1.0,,,1519,60,difficult to read,06-03-2019 17:13
519,0.0,7.0,True,Non-designer,1,lexical,16,sansforgetica,after,word,Sure word,1.0,,,1056,60,difficult to read,06-03-2019 17:13
520,0.0,7.0,True,Non-designer,1,lexical,17,sansforgetica,starlex,non-word,Sure non-word,1.0,,,1793,60,difficult to read,06-03-2019 17:13
521,0.0,7.0,True,Non-designer,1,lexical,18,sansforgetica,possecapped,non-word,Sure non-word,1.0,,,1520,60,difficult to read,06-03-2019 17:13
522,0.0,7.0,True,Non-designer,1,lexical,19,sansforgetica,comes,word,Sure word,1.0,,,1983,60,difficult to read,06-03-2019 17:13
523,0.0,7.0,True,Non-designer,1,lexical,20,sansforgetica,disruptics,non-word,Sure non-word,1.0,,,2385,60,difficult to read,06-03-2019 17:13
524,0.0,7.0,True,Non-designer,1,recognition,1,sansforgetica,implected,non-word,Sure seen,1.0,seen,implected,4207,60,difficult to read,06-03-2019 17:13
525,0.0,7.0,True,Non-designer,1,recognition,2,sansforgetica,pollowing,non-word,Sure seen,1.0,seen,pollowing,1737,60,difficult to read,06-03-2019 17:13
526,0.0,7.0,True,Non-designer,1,recognition,3,sansforgetica,everybody,word,Sure not seen,1.0,not seen,every,2071,60,difficult to read,06-03-2019 17:13
527,0.0,7.0,True,Non-designer,1,recognition,4,sansforgetica,disruptics,non-word,Sure seen,1.0,seen,disruptics,2841,60,difficult to read,06-03-2019 17:13
528,0.0,7.0,True,Non-designer,1,recognition,5,sansforgetica,actual,word,Probably seen,1.0,seen,actual,2487,60,difficult to read,06-03-2019 17:13
529,0.0,7.0,True,Non-designer,1,recognition,6,sansforgetica,wrong,word,Probably not seen,1.0,not seen,written,1927,60,difficult to read,06-03-2019 17:13
530,0.0,7.0,True,Non-designer,1,recognition,7,sansforgetica,comes,word,Probably not seen,0.0,seen,comes,1521,60,difficult to read,06-03-2019 17:13
531,0.0,7.0,True,Non-designer,1,recognition,8,sansforgetica,sugoselves,non-word,Probably not seen,1.0,not seen,sugmaling,3424,60,difficult to read,06-03-2019 17:13
532,0.0,7.0,True,Non-designer,1,recognition,9,sansforgetica,possiols,non-word,Probably not seen,1.0,not seen,possecapped,2242,60,difficult to read,06-03-2019 17:13
533,0.0,7.0,True,Non-designer,1,recognition,10,sansforgetica,sister,word,Probably seen,1.0,seen,sister,1902,60,difficult to read,06-03-2019 17:13
534,0.0,7.0,True,Non-designer,1,recognition,11,sansforgetica,afternoon,word,Sure not seen,1.0,not seen,after,2152,60,difficult to read,06-03-2019 17:13
535,0.0,7.0,True,Non-designer,1,recognition,12,sansforgetica,starned,non-word,Probably not seen,1.0,not seen,starlex,3400,60,difficult to read,06-03-2019 17:13
536,0.0,7.0,True,Non-designer,1,recognition,13,sansforgetica,suggesent,non-word,Probably not seen,1.0,not seen,suggers,1984,60,difficult to read,06-03-2019 17:13
537,0.0,7.0,True,Non-designer,1,recognition,14,sansforgetica,trust,word,Probably not seen,0.0,seen,trust,3817,60,difficult to read,06-03-2019 17:13
538,0.0,7.0,True,Non-designer,1,recognition,15,sansforgetica,sligince,non-word,Sure not seen,0.0,seen,sligince,2543,60,difficult to read,06-03-2019 17:13
539,0.0,7.0,True,Non-designer,1,recognition,16,sansforgetica,computer,word,Probably not seen,1.0,not seen,complex,1928,60,difficult to read,06-03-2019 17:13
540,0.0,7.0,True,Non-designer,2,lexical,1,inputsans,spite,word,Sure word,1.0,,,2496,54,ok,06-03-2019 17:13
541,0.0,7.0,True,Non-designer,2,lexical,2,inputsans,retter,non-word,Sure non-word,1.0,,,1657,54,ok,06-03-2019 17:13
542,0.0,7.0,True,Non-designer,2,lexical,3,inputsans,happered,non-word,Sure non-word,1.0,,,1568,54,ok,06-03-2019 17:13
543,0.0,7.0,True,Non-designer,2,lexical,4,inputsans,toward,word,Sure word,1.0,,,3000,54,ok,06-03-2019 17:13
544,0.0,7.0,True,Non-designer,2,lexical,5,inputsans,leceived,non-word,Sure non-word,1.0,,,2305,54,ok,06-03-2019 17:13
545,0.0,7.0,True,Non-designer,2,lexical,6,inputsans,expeatial,non-word,Sure non-word,1.0,,,1246,54,ok,06-03-2019 17:13
546,0.0,7.0,True,Non-designer,2,lexical,7,inputsans,capable,word,Sure word,1.0,,,1816,54,ok,06-03-2019 17:13
547,0.0,7.0,True,Non-designer,2,lexical,8,inputsans,frightened,word,Sure word,1.0,,,896,54,ok,06-03-2019 17:13
548,0.0,7.0,True,Non-designer,2,lexical,9,inputsans,anandations,non-word,Sure non-word,1.0,,,2864,54,ok,06-03-2019 17:13
549,0.0,7.0,True,Non-designer,2,lexical,10,inputsans,decommental,non-word,Sure non-word,1.0,,,1127,54,ok,06-03-2019 17:13
550,0.0,7.0,True,Non-designer,2,lexical,11,inputsans,protbation,non-word,Sure non-word,1.0,,,1800,54,ok,06-03-2019 17:13
551,0.0,7.0,True,Non-designer,2,lexical,12,inputsans,appeal,word,Sure word,1.0,,,1703,54,ok,06-03-2019 17:13
552,0.0,7.0,True,Non-designer,2,lexical,13,inputsans,covered,word,Sure word,1.0,,,1192,54,ok,06-03-2019 17:13
553,0.0,7.0,True,Non-designer,2,lexical,14,inputsans,sides,word,Sure word,1.0,,,1151,54,ok,06-03-2019 17:13
554,0.0,7.0,True,Non-designer,2,lexical,15,inputsans,wituraman,non-word,Sure non-word,1.0,,,1913,54,ok,06-03-2019 17:13
555,0.0,7.0,True,Non-designer,2,lexical,16,inputsans,mixtured,non-word,Probably non-word,1.0,,,3577,54,ok,06-03-2019 17:13
556,0.0,7.0,True,Non-designer,2,lexical,17,inputsans,weapons,word,Sure word,1.0,,,1631,54,ok,06-03-2019 17:13
557,0.0,7.0,True,Non-designer,2,lexical,18,inputsans,agreement,word,Sure word,1.0,,,1480,54,ok,06-03-2019 17:13
558,0.0,7.0,True,Non-designer,2,lexical,19,inputsans,choose,word,Sure word,1.0,,,1113,54,ok,06-03-2019 17:13
559,0.0,7.0,True,Non-designer,2,lexical,20,inputsans,goverpream,non-word,Sure non-word,1.0,,,1702,54,ok,06-03-2019 17:13
560,0.0,7.0,True,Non-designer,2,recognition,1,inputsans,anandations,non-word,Probably not seen,0.0,seen,anandations,2960,54,ok,06-03-2019 17:13
561,0.0,7.0,True,Non-designer,2,recognition,2,inputsans,wituraman,non-word,Sure seen,1.0,seen,wituraman,2240,54,ok,06-03-2019 17:13
562,0.0,7.0,True,Non-designer,2,recognition,3,inputsans,lecieve,non-word,Probably not seen,1.0,not seen,leceived,2489,54,ok,06-03-2019 17:13
563,0.0,7.0,True,Non-designer,2,recognition,4,inputsans,appeal,word,Probably seen,1.0,seen,appeal,1551,54,ok,06-03-2019 17:13
564,0.0,7.0,True,Non-designer,2,recognition,5,inputsans,protbation,non-word,Sure seen,1.0,seen,protbation,2026,54,ok,06-03-2019 17:13
565,0.0,7.0,True,Non-designer,2,recognition,6,inputsans,expeatious,non-word,Probably not seen,1.0,not seen,expeatial,4622,54,ok,06-03-2019 17:13
566,0.0,7.0,True,Non-designer,2,recognition,7,inputsans,chosen,word,Probably seen,0.0,not seen,choose,1625,54,ok,06-03-2019 17:13
567,0.0,7.0,True,Non-designer,2,recognition,8,inputsans,capacity,word,Probably not seen,1.0,not seen,capable,2279,54,ok,06-03-2019 17:13
568,0.0,7.0,True,Non-designer,2,recognition,9,inputsans,spite,word,Probably not seen,0.0,seen,spite,2911,54,ok,06-03-2019 17:13
569,0.0,7.0,True,Non-designer,2,recognition,10,inputsans,revelopment,non-word,Probably not seen,1.0,not seen,retter,2425,54,ok,06-03-2019 17:13
570,0.0,7.0,True,Non-designer,2,recognition,11,inputsans,agreement,word,Probably seen,1.0,seen,agreement,1680,54,ok,06-03-2019 17:13
571,0.0,7.0,True,Non-designer,2,recognition,12,inputsans,trade,word,Probably seen,0.0,not seen,toward,1856,54,ok,06-03-2019 17:13
572,0.0,7.0,True,Non-designer,2,recognition,13,inputsans,weapons,word,Probably seen,1.0,seen,weapons,1408,54,ok,06-03-2019 17:13
573,0.0,7.0,True,Non-designer,2,recognition,14,inputsans,decommental,non-word,Sure seen,1.0,seen,decommental,1975,54,ok,06-03-2019 17:13
574,0.0,7.0,True,Non-designer,2,recognition,15,inputsans,happlemas,non-word,Sure not seen,1.0,not seen,happered,2130,54,ok,06-03-2019 17:13
575,0.0,7.0,True,Non-designer,2,recognition,16,inputsans,sight,word,Probably seen,0.0,not seen,sides,1679,54,ok,06-03-2019 17:13
576,0.0,8.0,True,Other designer,1,lexical,1,inputsans,branch,word,Sure word,1.0,,,5983,35,ok,11-02-2019 10:22
577,0.0,8.0,True,Other designer,1,lexical,2,inputsans,principle,word,Sure word,1.0,,,1568,35,ok,11-02-2019 10:22
578,0.0,8.0,True,Other designer,1,lexical,3,inputsans,neceeducted,non-word,Sure non-word,1.0,,,5313,35,ok,11-02-2019 10:22
579,0.0,8.0,True,Other designer,1,lexical,4,inputsans,venerweared,non-word,Sure non-word,1.0,,,3957,35,ok,11-02-2019 10:22
580,0.0,8.0,True,Other designer,1,lexical,5,inputsans,allond,non-word,Sure non-word,1.0,,,5545,35,ok,11-02-2019 10:22
581,0.0,8.0,True,Other designer,1,lexical,6,inputsans,infantics,non-word,Probably word,0.0,,,4066,35,ok,11-02-2019 10:22
582,0.0,8.0,True,Other designer,1,lexical,7,inputsans,coffee,word,Sure word,1.0,,,1753,35,ok,11-02-2019 10:22
583,0.0,8.0,True,Other designer,1,lexical,8,inputsans,explitition,non-word,Probably word,0.0,,,6241,35,ok,11-02-2019 10:22
584,0.0,8.0,True,Other designer,1,lexical,9,inputsans,distery,non-word,Probably non-word,1.0,,,5601,35,ok,11-02-2019 10:22
585,0.0,8.0,True,Other designer,1,lexical,10,inputsans,whose,word,Sure word,1.0,,,1940,35,ok,11-02-2019 10:22
586,0.0,8.0,True,Other designer,1,lexical,11,inputsans,regular,word,Sure word,1.0,,,1334,35,ok,11-02-2019 10:22
587,0.0,8.0,True,Other designer,1,lexical,12,inputsans,association,word,Sure word,1.0,,,2007,35,ok,11-02-2019 10:22
588,0.0,8.0,True,Other designer,1,lexical,13,inputsans,setting,word,Sure word,1.0,,,1224,35,ok,11-02-2019 10:22
589,0.0,8.0,True,Other designer,1,lexical,14,inputsans,might,word,Sure word,1.0,,,1230,35,ok,11-02-2019 10:22
590,0.0,8.0,True,Other designer,1,lexical,15,inputsans,conferation,non-word,Probably non-word,1.0,,,6509,35,ok,11-02-2019 10:22
591,0.0,8.0,True,Other designer,1,lexical,16,inputsans,experience,word,Sure word,1.0,,,1896,35,ok,11-02-2019 10:22
592,0.0,8.0,True,Other designer,1,lexical,17,inputsans,uncregately,non-word,Sure non-word,1.0,,,2909,35,ok,11-02-2019 10:22
593,0.0,8.0,True,Other designer,1,lexical,18,inputsans,mandersion,non-word,Sure non-word,1.0,,,2240,35,ok,11-02-2019 10:22
594,0.0,8.0,True,Other designer,1,lexical,19,inputsans,carturences,non-word,Sure non-word,1.0,,,3369,35,ok,11-02-2019 10:22
595,0.0,8.0,True,Other designer,1,lexical,20,inputsans,first,word,Sure word,1.0,,,1952,35,ok,11-02-2019 10:22
596,0.0,8.0,True,Other designer,1,recognition,1,inputsans,neceeducted,non-word,Probably seen,1.0,seen,,7625,35,ok,11-02-2019 10:22
597,0.0,8.0,True,Other designer,1,recognition,2,inputsans,might,word,Sure seen,1.0,seen,,1851,35,ok,11-02-2019 10:22
598,0.0,8.0,True,Other designer,1,recognition,3,inputsans,reported,word,Sure not seen,1.0,not seen,regular,6535,35,ok,11-02-2019 10:22
599,0.0,8.0,True,Other designer,1,recognition,4,inputsans,driftion,non-word,Sure not seen,1.0,not seen,distery,3095,35,ok,11-02-2019 10:22
600,0.0,8.0,True,Other designer,1,recognition,5,inputsans,forms,word,Probably not seen,1.0,not seen,first,4608,35,ok,11-02-2019 10:22
601,0.0,8.0,True,Other designer,1,recognition,6,inputsans,principle,word,Sure seen,1.0,seen,,2155,35,ok,11-02-2019 10:22
602,0.0,8.0,True,Other designer,1,recognition,7,inputsans,chaped,non-word,Sure not seen,1.0,not seen,carturences,2981,35,ok,11-02-2019 10:22
603,0.0,8.0,True,Other designer,1,recognition,8,inputsans,infantics,non-word,Sure seen,1.0,seen,,2177,35,ok,11-02-2019 10:22
604,0.0,8.0,True,Other designer,1,recognition,9,inputsans,conferation,non-word,Sure seen,1.0,seen,,1602,35,ok,11-02-2019 10:22
605,0.0,8.0,True,Other designer,1,recognition,10,inputsans,agaim,non-word,Sure not seen,1.0,not seen,allond,2672,35,ok,11-02-2019 10:22
606,0.0,8.0,True,Other designer,1,recognition,11,inputsans,effect,word,Sure not seen,1.0,not seen,experience,2184,35,ok,11-02-2019 10:22
607,0.0,8.0,True,Other designer,1,recognition,12,inputsans,venerweared,non-word,Sure seen,1.0,seen,,3164,35,ok,11-02-2019 10:22
608,0.0,8.0,True,Other designer,1,recognition,13,inputsans,branch,word,Sure seen,1.0,seen,,1517,35,ok,11-02-2019 10:22
609,0.0,8.0,True,Other designer,1,recognition,14,inputsans,setting,word,Probably seen,1.0,seen,,3273,35,ok,11-02-2019 10:22
610,0.0,8.0,True,Other designer,1,recognition,15,inputsans,espernence,non-word,Probably seen,0.0,not seen,explitition,10589,35,ok,11-02-2019 10:22
611,0.0,8.0,True,Other designer,1,recognition,16,inputsans,actions,word,Sure not seen,1.0,not seen,association,2497,35,ok,11-02-2019 10:22
612,0.0,8.0,True,Other designer,2,lexical,1,sansforgetica,music,word,Sure word,1.0,,,6392,30,easy to read,11-02-2019 10:22
613,0.0,8.0,True,Other designer,2,lexical,2,sansforgetica,minest,non-word,Sure non-word,1.0,,,6637,30,easy to read,11-02-2019 10:22
614,0.0,8.0,True,Other designer,2,lexical,3,sansforgetica,undonestes,non-word,Sure non-word,1.0,,,2147,30,easy to read,11-02-2019 10:22
615,0.0,8.0,True,Other designer,2,lexical,4,sansforgetica,deparations,non-word,Probably non-word,1.0,,,4410,30,easy to read,11-02-2019 10:22
616,0.0,8.0,True,Other designer,2,lexical,5,sansforgetica,batchdour,non-word,Sure non-word,1.0,,,4628,30,easy to read,11-02-2019 10:22
617,0.0,8.0,True,Other designer,2,lexical,6,sansforgetica,deterienth,non-word,Sure non-word,1.0,,,3667,30,easy to read,11-02-2019 10:22
618,0.0,8.0,True,Other designer,2,lexical,7,sansforgetica,famous,word,Sure word,1.0,,,2062,30,easy to read,11-02-2019 10:22
619,0.0,8.0,True,Other designer,2,lexical,8,sansforgetica,aware,word,Sure word,1.0,,,1462,30,easy to read,11-02-2019 10:22
620,0.0,8.0,True,Other designer,2,lexical,9,sansforgetica,steet,non-word,Probably non-word,1.0,,,4141,30,easy to read,11-02-2019 10:22
621,0.0,8.0,True,Other designer,2,lexical,10,sansforgetica,feepped,non-word,Sure non-word,1.0,,,2461,30,easy to read,11-02-2019 10:22
622,0.0,8.0,True,Other designer,2,lexical,11,sansforgetica,finally,word,Sure word,1.0,,,2156,30,easy to read,11-02-2019 10:22
623,0.0,8.0,True,Other designer,2,lexical,12,sansforgetica,below,word,Sure word,1.0,,,1584,30,easy to read,11-02-2019 10:22
624,0.0,8.0,True,Other designer,2,lexical,13,sansforgetica,pounds,word,Sure word,1.0,,,1531,30,easy to read,11-02-2019 10:22
625,0.0,8.0,True,Other designer,2,lexical,14,sansforgetica,cittes,non-word,Probably non-word,1.0,,,7121,30,easy to read,11-02-2019 10:22
626,0.0,8.0,True,Other designer,2,lexical,15,sansforgetica,wrote,word,Sure word,1.0,,,2237,30,easy to read,11-02-2019 10:22
627,0.0,8.0,True,Other designer,2,lexical,16,sansforgetica,syster,non-word,Probably word,0.0,,,6403,30,easy to read,11-02-2019 10:22
628,0.0,8.0,True,Other designer,2,lexical,17,sansforgetica,rather,word,Sure word,1.0,,,4711,30,easy to read,11-02-2019 10:22
629,0.0,8.0,True,Other designer,2,lexical,18,sansforgetica,communist,word,Sure word,1.0,,,2535,30,easy to read,11-02-2019 10:22
630,0.0,8.0,True,Other designer,2,lexical,19,sansforgetica,removed,word,Sure word,1.0,,,1495,30,easy to read,11-02-2019 10:22
631,0.0,8.0,True,Other designer,2,lexical,20,sansforgetica,polinize,non-word,Sure word,0.0,,,4582,30,easy to read,11-02-2019 10:22
632,0.0,8.0,True,Other designer,2,recognition,1,sansforgetica,deterienth,non-word,Probably seen,1.0,seen,,5267,30,easy to read,11-02-2019 10:22
633,0.0,8.0,True,Other designer,2,recognition,2,sansforgetica,activities,word,Probably not seen,1.0,not seen,aware,9184,30,easy to read,11-02-2019 10:22
634,0.0,8.0,True,Other designer,2,recognition,3,sansforgetica,caparetter,non-word,Probably not seen,1.0,not seen,cittes,3371,30,easy to read,11-02-2019 10:22
635,0.0,8.0,True,Other designer,2,recognition,4,sansforgetica,famous,word,Sure seen,1.0,seen,,2367,30,easy to read,11-02-2019 10:22
636,0.0,8.0,True,Other designer,2,recognition,5,sansforgetica,plain,word,Sure not seen,1.0,not seen,pounds,2188,30,easy to read,11-02-2019 10:22
637,0.0,8.0,True,Other designer,2,recognition,6,sansforgetica,succuader,non-word,Sure not seen,1.0,not seen,steet,2546,30,easy to read,11-02-2019 10:22
638,0.0,8.0,True,Other designer,2,recognition,7,sansforgetica,batchdour,non-word,Sure seen,1.0,seen,,2627,30,easy to read,11-02-2019 10:22
639,0.0,8.0,True,Other designer,2,recognition,8,sansforgetica,starge,non-word,Sure not seen,1.0,not seen,syster,2231,30,easy to read,11-02-2019 10:22
640,0.0,8.0,True,Other designer,2,recognition,9,sansforgetica,below,word,Sure not seen,0.0,seen,,2648,30,easy to read,11-02-2019 10:22
641,0.0,8.0,True,Other designer,2,recognition,10,sansforgetica,matitary,non-word,Sure not seen,1.0,not seen,minest,2849,30,easy to read,11-02-2019 10:22
642,0.0,8.0,True,Other designer,2,recognition,11,sansforgetica,catch,word,Sure not seen,1.0,not seen,communist,1399,30,easy to read,11-02-2019 10:22
643,0.0,8.0,True,Other designer,2,recognition,12,sansforgetica,removed,word,Probably not seen,0.0,seen,,3625,30,easy to read,11-02-2019 10:22
644,0.0,8.0,True,Other designer,2,recognition,13,sansforgetica,feepped,non-word,Sure not seen,0.0,seen,,1897,30,easy to read,11-02-2019 10:22
645,0.0,8.0,True,Other designer,2,recognition,14,sansforgetica,while,word,Probably not seen,1.0,not seen,wrote,2462,30,easy to read,11-02-2019 10:22
646,0.0,8.0,True,Other designer,2,recognition,15,sansforgetica,deparations,non-word,Sure seen,1.0,seen,,2777,30,easy to read,11-02-2019 10:22
647,0.0,8.0,True,Other designer,2,recognition,16,sansforgetica,finally,word,Sure seen,1.0,seen,,1722,30,easy to read,11-02-2019 10:22
648,0.0,9.0,True,Non-designer,1,lexical,1,sansforgetica,states,word,Sure word,1.0,,,3425,60,very difficult to read,07-02-2019 18:14
649,0.0,9.0,True,Non-designer,1,lexical,2,sansforgetica,hamething,non-word,Sure non-word,1.0,,,2297,60,very difficult to read,07-02-2019 18:14
650,0.0,9.0,True,Non-designer,1,lexical,3,sansforgetica,giving,word,Sure word,1.0,,,1599,60,very difficult to read,07-02-2019 18:14
651,0.0,9.0,True,Non-designer,1,lexical,4,sansforgetica,plastic,word,Sure word,1.0,,,1393,60,very difficult to read,07-02-2019 18:14
652,0.0,9.0,True,Non-designer,1,lexical,5,sansforgetica,after,word,Sure word,1.0,,,1431,60,very difficult to read,07-02-2019 18:14
653,0.0,9.0,True,Non-designer,1,lexical,6,sansforgetica,curonoms,non-word,Sure non-word,1.0,,,3055,60,very difficult to read,07-02-2019 18:14
654,0.0,9.0,True,Non-designer,1,lexical,7,sansforgetica,politics,word,Sure word,1.0,,,1779,60,very difficult to read,07-02-2019 18:14
655,0.0,9.0,True,Non-designer,1,lexical,8,sansforgetica,improprians,non-word,Sure non-word,1.0,,,2209,60,very difficult to read,07-02-2019 18:14
656,0.0,9.0,True,Non-designer,1,lexical,9,sansforgetica,potervies,non-word,Sure non-word,1.0,,,1721,60,very difficult to read,07-02-2019 18:14
657,0.0,9.0,True,Non-designer,1,lexical,10,sansforgetica,taste,word,Sure word,1.0,,,1671,60,very difficult to read,07-02-2019 18:14
658,0.0,9.0,True,Non-designer,1,lexical,11,sansforgetica,first,word,Sure word,1.0,,,1017,60,very difficult to read,07-02-2019 18:14
659,0.0,9.0,True,Non-designer,1,lexical,12,sansforgetica,addicaches,non-word,Sure non-word,1.0,,,1905,60,very difficult to read,07-02-2019 18:14
660,0.0,9.0,True,Non-designer,1,lexical,13,sansforgetica,frantage,non-word,Sure non-word,1.0,,,1278,60,very difficult to read,07-02-2019 18:14
661,0.0,9.0,True,Non-designer,1,lexical,14,sansforgetica,brought,word,Sure word,1.0,,,2161,60,very difficult to read,07-02-2019 18:14
662,0.0,9.0,True,Non-designer,1,lexical,15,sansforgetica,exprinuous,non-word,Sure non-word,1.0,,,1919,60,very difficult to read,07-02-2019 18:14
663,0.0,9.0,True,Non-designer,1,lexical,16,sansforgetica,conscioning,non-word,Sure non-word,1.0,,,1444,60,very difficult to read,07-02-2019 18:14
664,0.0,9.0,True,Non-designer,1,lexical,17,sansforgetica,govelesses,non-word,Sure non-word,1.0,,,1877,60,very difficult to read,07-02-2019 18:14
665,0.0,9.0,True,Non-designer,1,lexical,18,sansforgetica,sector,word,Sure word,1.0,,,1576,60,very difficult to read,07-02-2019 18:14
666,0.0,9.0,True,Non-designer,1,lexical,19,sansforgetica,pasis,non-word,Sure non-word,1.0,,,1775,60,very difficult to read,07-02-2019 18:14
667,0.0,9.0,True,Non-designer,1,lexical,20,sansforgetica,sudden,word,Sure word,1.0,,,1752,60,very difficult to read,07-02-2019 18:14
668,0.0,9.0,True,Non-designer,1,recognition,1,sansforgetica,sector,word,Probably seen,1.0,seen,,2721,60,very difficult to read,07-02-2019 18:14
669,0.0,9.0,True,Non-designer,1,recognition,2,sansforgetica,brought,word,Sure seen,1.0,seen,,1527,60,very difficult to read,07-02-2019 18:14
670,0.0,9.0,True,Non-designer,1,recognition,3,sansforgetica,cheir,non-word,Probably not seen,1.0,not seen,curonoms,3727,60,very difficult to read,07-02-2019 18:14
671,0.0,9.0,True,Non-designer,1,recognition,4,sansforgetica,presence,word,Probably seen,0.0,not seen,politics,1744,60,very difficult to read,07-02-2019 18:14
672,0.0,9.0,True,Non-designer,1,recognition,5,sansforgetica,experession,non-word,Probably not seen,1.0,not seen,exprinuous,2673,60,very difficult to read,07-02-2019 18:14
673,0.0,9.0,True,Non-designer,1,recognition,6,sansforgetica,giving,word,Probably seen,1.0,seen,,1695,60,very difficult to read,07-02-2019 18:14
674,0.0,9.0,True,Non-designer,1,recognition,7,sansforgetica,appeal,word,Probably not seen,1.0,not seen,after,2352,60,very difficult to read,07-02-2019 18:14
675,0.0,9.0,True,Non-designer,1,recognition,8,sansforgetica,plastic,word,Probably not seen,0.0,seen,,2217,60,very difficult to read,07-02-2019 18:14
676,0.0,9.0,True,Non-designer,1,recognition,9,sansforgetica,field,word,Probably not seen,1.0,not seen,first,1687,60,very difficult to read,07-02-2019 18:14
677,0.0,9.0,True,Non-designer,1,recognition,10,sansforgetica,grattered,non-word,Sure not seen,1.0,not seen,govelesses,3471,60,very difficult to read,07-02-2019 18:14
678,0.0,9.0,True,Non-designer,1,recognition,11,sansforgetica,pasis,non-word,Probably seen,1.0,seen,,3247,60,very difficult to read,07-02-2019 18:14
679,0.0,9.0,True,Non-designer,1,recognition,12,sansforgetica,potervies,non-word,Probably seen,1.0,seen,,1834,60,very difficult to read,07-02-2019 18:14
680,0.0,9.0,True,Non-designer,1,recognition,13,sansforgetica,frantage,non-word,Probably not seen,0.0,seen,,2750,60,very difficult to read,07-02-2019 18:14
681,0.0,9.0,True,Non-designer,1,recognition,14,sansforgetica,themselves,word,Sure not seen,1.0,not seen,taste,1888,60,very difficult to read,07-02-2019 18:14
682,0.0,9.0,True,Non-designer,1,recognition,15,sansforgetica,compution,non-word,Probably not seen,1.0,not seen,conscioning,1945,60,very difficult to read,07-02-2019 18:14
683,0.0,9.0,True,Non-designer,1,recognition,16,sansforgetica,hamething,non-word,Probably seen,1.0,seen,,2207,60,very difficult to read,07-02-2019 18:14
684,0.0,9.0,True,Non-designer,2,lexical,1,inputsans,bridge,word,Sure word,1.0,,,2377,45,very easy to read,07-02-2019 18:14
685,0.0,9.0,True,Non-designer,2,lexical,2,inputsans,amasped,non-word,Sure non-word,1.0,,,2168,45,very easy to read,07-02-2019 18:14
686,0.0,9.0,True,Non-designer,2,lexical,3,inputsans,father,word,Sure word,1.0,,,2073,45,very easy to read,07-02-2019 18:14
687,0.0,9.0,True,Non-designer,2,lexical,4,inputsans,audience,word,Sure word,1.0,,,2416,45,very easy to read,07-02-2019 18:14
688,0.0,9.0,True,Non-designer,2,lexical,5,inputsans,esserwing,non-word,Sure non-word,1.0,,,2442,45,very easy to read,07-02-2019 18:14
689,0.0,9.0,True,Non-designer,2,lexical,6,inputsans,issue,word,Sure word,1.0,,,2501,45,very easy to read,07-02-2019 18:14
690,0.0,9.0,True,Non-designer,2,lexical,7,inputsans,patcher,non-word,Sure non-word,1.0,,,2617,45,very easy to read,07-02-2019 18:14
691,0.0,9.0,True,Non-designer,2,lexical,8,inputsans,surcenters,non-word,Sure non-word,1.0,,,2519,45,very easy to read,07-02-2019 18:14
692,0.0,9.0,True,Non-designer,2,lexical,9,inputsans,morence,non-word,Sure non-word,1.0,,,2304,45,very easy to read,07-02-2019 18:14
693,0.0,9.0,True,Non-designer,2,lexical,10,inputsans,previous,word,Sure word,1.0,,,1888,45,very easy to read,07-02-2019 18:14
694,0.0,9.0,True,Non-designer,2,lexical,11,inputsans,social,word,Sure word,1.0,,,1248,45,very easy to read,07-02-2019 18:14
695,0.0,9.0,True,Non-designer,2,lexical,12,inputsans,authorities,word,Sure word,1.0,,,2625,45,very easy to read,07-02-2019 18:14
696,0.0,9.0,True,Non-designer,2,lexical,13,inputsans,dinded,non-word,Sure non-word,1.0,,,2439,45,very easy to read,07-02-2019 18:14
697,0.0,9.0,True,Non-designer,2,lexical,14,inputsans,distance,word,Sure word,1.0,,,1784,45,very easy to read,07-02-2019 18:14
698,0.0,9.0,True,Non-designer,2,lexical,15,inputsans,drojects,non-word,Sure non-word,1.0,,,2191,45,very easy to read,07-02-2019 18:14
699,0.0,9.0,True,Non-designer,2,lexical,16,inputsans,ninished,non-word,Sure non-word,1.0,,,1776,45,very easy to read,07-02-2019 18:14
700,0.0,9.0,True,Non-designer,2,lexical,17,inputsans,thinking,word,Sure word,1.0,,,1960,45,very easy to read,07-02-2019 18:14
701,0.0,9.0,True,Non-designer,2,lexical,18,inputsans,claygrable,non-word,Sure non-word,1.0,,,2170,45,very easy to read,07-02-2019 18:14
702,0.0,9.0,True,Non-designer,2,lexical,19,inputsans,belief,word,Sure word,1.0,,,1695,45,very easy to read,07-02-2019 18:14
703,0.0,9.0,True,Non-designer,2,lexical,20,inputsans,succerdly,non-word,Sure non-word,1.0,,,1847,45,very easy to read,07-02-2019 18:14
704,0.0,9.0,True,Non-designer,2,recognition,1,inputsans,areas,word,Sure not seen,1.0,not seen,authorities,2527,45,very easy to read,07-02-2019 18:14
705,0.0,9.0,True,Non-designer,2,recognition,2,inputsans,thinking,word,Probably not seen,0.0,seen,,3009,45,very easy to read,07-02-2019 18:14
706,0.0,9.0,True,Non-designer,2,recognition,3,inputsans,social,word,Sure seen,1.0,seen,,2007,45,very easy to read,07-02-2019 18:14
707,0.0,9.0,True,Non-designer,2,recognition,4,inputsans,expeat,non-word,Sure not seen,1.0,not seen,esserwing,2089,45,very easy to read,07-02-2019 18:14
708,0.0,9.0,True,Non-designer,2,recognition,5,inputsans,absolutely,word,Probably seen,0.0,not seen,audience,1833,45,very easy to read,07-02-2019 18:14
709,0.0,9.0,True,Non-designer,2,recognition,6,inputsans,distance,word,Probably seen,1.0,seen,,1463,45,very easy to read,07-02-2019 18:14
710,0.0,9.0,True,Non-designer,2,recognition,7,inputsans,aggreciled,non-word,Sure not seen,1.0,not seen,amasped,2759,45,very easy to read,07-02-2019 18:14
711,0.0,9.0,True,Non-designer,2,recognition,8,inputsans,patcher,non-word,Probably seen,1.0,seen,,3376,45,very easy to read,07-02-2019 18:14
712,0.0,9.0,True,Non-designer,2,recognition,9,inputsans,decommental,non-word,Probably not seen,1.0,not seen,dinded,1960,45,very easy to read,07-02-2019 18:14
713,0.0,9.0,True,Non-designer,2,recognition,10,inputsans,follow,word,Probably seen,0.0,not seen,father,1879,45,very easy to read,07-02-2019 18:14
714,0.0,9.0,True,Non-designer,2,recognition,11,inputsans,parliament,word,Sure not seen,1.0,not seen,previous,1745,45,very easy to read,07-02-2019 18:14
715,0.0,9.0,True,Non-designer,2,recognition,12,inputsans,morence,non-word,Probably not seen,0.0,seen,,1784,45,very easy to read,07-02-2019 18:14
716,0.0,9.0,True,Non-designer,2,recognition,13,inputsans,coods,non-word,Sure not seen,1.0,not seen,claygrable,2176,45,very easy to read,07-02-2019 18:14
717,0.0,9.0,True,Non-designer,2,recognition,14,inputsans,drojects,non-word,Probably seen,1.0,seen,,2504,45,very easy to read,07-02-2019 18:14
718,0.0,9.0,True,Non-designer,2,recognition,15,inputsans,bridge,word,Probably not seen,0.0,seen,,2247,45,very easy to read,07-02-2019 18:14
719,0.0,9.0,True,Non-designer,2,recognition,16,inputsans,succerdly,non-word,Probably seen,1.0,seen,,3025,45,very easy to read,07-02-2019 18:14
720,0.0,10.0,True,Other designer,1,lexical,1,inputsans,called,word,Sure word,1.0,,,1616,62,very easy to read,05-02-2019 20:36
721,0.0,10.0,True,Other designer,1,lexical,2,inputsans,lanistic,non-word,Probably non-word,1.0,,,1920,62,very easy to read,05-02-2019 20:36
722,0.0,10.0,True,Other designer,1,lexical,3,inputsans,country,word,Sure word,1.0,,,1522,62,very easy to read,05-02-2019 20:36
723,0.0,10.0,True,Other designer,1,lexical,4,inputsans,sollaren,non-word,Sure non-word,1.0,,,1803,62,very easy to read,05-02-2019 20:36
724,0.0,10.0,True,Other designer,1,lexical,5,inputsans,nobody,word,Sure word,1.0,,,1539,62,very easy to read,05-02-2019 20:36
725,0.0,10.0,True,Other designer,1,lexical,6,inputsans,hamething,non-word,Probably non-word,1.0,,,2255,62,very easy to read,05-02-2019 20:36
726,0.0,10.0,True,Other designer,1,lexical,7,inputsans,sunget,non-word,Sure non-word,1.0,,,1634,62,very easy to read,05-02-2019 20:36
727,0.0,10.0,True,Other designer,1,lexical,8,inputsans,societary,non-word,Sure word,0.0,,,2053,62,very easy to read,05-02-2019 20:36
728,0.0,10.0,True,Other designer,1,lexical,9,inputsans,wealth,word,Sure word,1.0,,,1607,62,very easy to read,05-02-2019 20:36
729,0.0,10.0,True,Other designer,1,lexical,10,inputsans,secresary,non-word,Sure non-word,1.0,,,2448,62,very easy to read,05-02-2019 20:36
730,0.0,10.0,True,Other designer,1,lexical,11,inputsans,busitown,non-word,Sure non-word,1.0,,,2692,62,very easy to read,05-02-2019 20:36
731,0.0,10.0,True,Other designer,1,lexical,12,inputsans,alone,word,Sure word,1.0,,,1537,62,very easy to read,05-02-2019 20:36
