,Unnamed: 0,Study ID,Participant ID,Fluent,Designer,Test ID,Test type,Trial ID,Font,Sample,Category,Response,Correct,Seen,Foil,Response time,JoM,JoL,Date
0,0,1.0,0.0,True,Letter designer,1,lexical,1,arial,necressor,non-word,Probably non-word,1.0,,,5461,34,very easy to read,05-04-2019 12:16
1,1,1.0,0.0,True,Letter designer,1,lexical,2,arial,thouratute,non-word,Sure non-word,1.0,,,2706,34,very easy to read,05-04-2019 12:16
2,2,1.0,0.0,True,Letter designer,1,lexical,3,arial,refectuning,non-word,Sure non-word,1.0,,,1987,34,very easy to read,05-04-2019 12:16
3,3,1.0,0.0,True,Letter designer,1,lexical,4,arial,separate,word,Sure word,1.0,,,1368,34,very easy to read,05-04-2019 12:16
4,4,1.0,0.0,True,Letter designer,1,lexical,5,arial,studies,word,Sure word,1.0,,,1119,34,very easy to read,05-04-2019 12:16
5,5,1.0,0.0,True,Letter designer,1,lexical,6,arial,presence,word,Sure word,1.0,,,771,34,very easy to read,05-04-2019 12:16
6,6,1.0,0.0,True,Letter designer,1,lexical,7,arial,faces,word,Sure word,1.0,,,756,34,very easy to read,05-04-2019 12:16
7,7,1.0,0.0,True,Letter designer,1,lexical,8,arial,stars,word,Sure word,1.0,,,766,34,very easy to read,05-04-2019 12:16
8,8,1.0,0.0,True,Letter designer,1,lexical,9,arial,experaties,non-word,Sure non-word,1.0,,,2153,34,very easy to read,05-04-2019 12:16
9,9,1.0,0.0,True,Letter designer,1,lexical,10,arial,repardance,non-word,Sure non-word,1.0,,,1414,34,very easy to read,05-04-2019 12:16
10,10,1.0,0.0,True,Letter designer,1,lexical,11,arial,gazark,non-word,Sure non-word,1.0,,,966,34,very easy to read,05-04-2019 12:16
11,11,1.0,0.0,True,Letter designer,1,lexical,12,arial,empreases,non-word,Sure non-word,1.0,,,1214,34,very easy to read,05-04-2019 12:16
12,12,1.0,0.0,True,Letter designer,1,lexical,13,arial,refengement,non-word,Probably word,0.0,,,3081,34,very easy to read,05-04-2019 12:16
13,13,1.0,0.0,True,Letter designer,1,lexical,14,arial,replied,word,Sure word,1.0,,,1281,34,very easy to read,05-04-2019 12:16
14,14,1.0,0.0,True,Letter designer,1,lexical,15,arial,lisertant,non-word,Sure non-word,1.0,,,1734,34,very easy to read,05-04-2019 12:16
15,15,1.0,0.0,True,Letter designer,1,lexical,16,arial,described,word,Sure word,1.0,,,1223,34,very easy to read,05-04-2019 12:16
16,16,1.0,0.0,True,Letter designer,1,lexical,17,arial,office,word,Sure word,1.0,,,1010,34,very easy to read,05-04-2019 12:16
17,17,1.0,0.0,True,Letter designer,1,lexical,18,arial,opposite,word,Sure word,1.0,,,939,34,very easy to read,05-04-2019 12:16
18,18,1.0,0.0,True,Letter designer,1,lexical,19,arial,descussed,non-word,Probably non-word,1.0,,,3205,34,very easy to read,05-04-2019 12:16
19,19,1.0,0.0,True,Letter designer,1,lexical,20,arial,support,word,Sure word,1.0,,,1095,34,very easy to read,05-04-2019 12:16
20,20,1.0,0.0,True,Letter designer,1,recognition,1,arial,faces,word,Sure seen,1.0,seen,faces,1952,34,very easy to read,05-04-2019 12:16
21,21,1.0,0.0,True,Letter designer,1,recognition,2,arial,described,word,Sure seen,1.0,seen,described,1445,34,very easy to read,05-04-2019 12:16
22,22,1.0,0.0,True,Letter designer,1,recognition,3,arial,opposition,word,Sure not seen,1.0,not seen,opposite,2421,34,very easy to read,05-04-2019 12:16
23,23,1.0,0.0,True,Letter designer,1,recognition,4,arial,separate,word,Sure seen,1.0,seen,separate,1549,34,very easy to read,05-04-2019 12:16
24,24,1.0,0.0,True,Letter designer,1,recognition,5,arial,repardance,non-word,Probably seen,1.0,seen,repardance,2073,34,very easy to read,05-04-2019 12:16
25,25,1.0,0.0,True,Letter designer,1,recognition,6,arial,experaties,non-word,Probably not seen,0.0,seen,experaties,4957,34,very easy to read,05-04-2019 12:16
26,26,1.0,0.0,True,Letter designer,1,recognition,7,arial,officers,word,Sure not seen,1.0,not seen,office,2125,34,very easy to read,05-04-2019 12:16
27,27,1.0,0.0,True,Letter designer,1,recognition,8,arial,stuff,word,Sure not seen,1.0,not seen,studies,1151,34,very easy to read,05-04-2019 12:16
28,28,1.0,0.0,True,Letter designer,1,recognition,9,arial,desing,non-word,Sure not seen,1.0,not seen,descussed,989,34,very easy to read,05-04-2019 12:16
29,29,1.0,0.0,True,Letter designer,1,recognition,10,arial,presence,word,Sure seen,1.0,seen,presence,1480,34,very easy to read,05-04-2019 12:16
30,30,1.0,0.0,True,Letter designer,1,recognition,11,arial,supposed,word,Probably seen,0.0,not seen,support,1777,34,very easy to read,05-04-2019 12:16
31,31,1.0,0.0,True,Letter designer,1,recognition,12,arial,empreases,non-word,Sure seen,1.0,seen,empreases,1555,34,very easy to read,05-04-2019 12:16
32,32,1.0,0.0,True,Letter designer,1,recognition,13,arial,regangle,non-word,Sure not seen,1.0,not seen,refengement,1358,34,very easy to read,05-04-2019 12:16
33,33,1.0,0.0,True,Letter designer,1,recognition,14,arial,neeld,non-word,Sure not seen,1.0,not seen,necressor,1061,34,very easy to read,05-04-2019 12:16
34,34,1.0,0.0,True,Letter designer,1,recognition,15,arial,rectined,non-word,Sure not seen,1.0,not seen,refectuning,1665,34,very easy to read,05-04-2019 12:16
35,35,1.0,0.0,True,Letter designer,1,recognition,16,arial,gazark,non-word,Sure seen,1.0,seen,gazark,1623,34,very easy to read,05-04-2019 12:16
36,36,1.0,0.0,True,Letter designer,2,lexical,1,sansforgetica,tealissed,non-word,Probably non-word,1.0,,,6800,35,difficult to read,05-04-2019 12:16
37,37,1.0,0.0,True,Letter designer,2,lexical,2,sansforgetica,partly,word,Sure word,1.0,,,1685,35,difficult to read,05-04-2019 12:16
38,38,1.0,0.0,True,Letter designer,2,lexical,3,sansforgetica,pulled,word,Sure word,1.0,,,4470,35,difficult to read,05-04-2019 12:16
39,39,1.0,0.0,True,Letter designer,2,lexical,4,sansforgetica,gream,non-word,Probably word,0.0,,,4570,35,difficult to read,05-04-2019 12:16
40,40,1.0,0.0,True,Letter designer,2,lexical,5,sansforgetica,goverpream,non-word,Sure non-word,1.0,,,3137,35,difficult to read,05-04-2019 12:16
41,41,1.0,0.0,True,Letter designer,2,lexical,6,sansforgetica,maintenting,non-word,Probably non-word,1.0,,,2715,35,difficult to read,05-04-2019 12:16
42,42,1.0,0.0,True,Letter designer,2,lexical,7,sansforgetica,capacity,word,Sure word,1.0,,,1282,35,difficult to read,05-04-2019 12:16
43,43,1.0,0.0,True,Letter designer,2,lexical,8,sansforgetica,third,word,Sure word,1.0,,,1033,35,difficult to read,05-04-2019 12:16
44,44,1.0,0.0,True,Letter designer,2,lexical,9,sansforgetica,drove,word,Sure word,1.0,,,941,35,difficult to read,05-04-2019 12:16
45,45,1.0,0.0,True,Letter designer,2,lexical,10,sansforgetica,government,word,Sure word,1.0,,,1057,35,difficult to read,05-04-2019 12:16
46,46,1.0,0.0,True,Letter designer,2,lexical,11,sansforgetica,serry,non-word,Sure word,0.0,,,845,35,difficult to read,05-04-2019 12:16
47,47,1.0,0.0,True,Letter designer,2,lexical,12,sansforgetica,trandforing,non-word,Sure non-word,1.0,,,2071,35,difficult to read,05-04-2019 12:16
48,48,1.0,0.0,True,Letter designer,2,lexical,13,sansforgetica,rincies,non-word,Sure non-word,1.0,,,1039,35,difficult to read,05-04-2019 12:16
49,49,1.0,0.0,True,Letter designer,2,lexical,14,sansforgetica,trust,word,Sure word,1.0,,,1289,35,difficult to read,05-04-2019 12:16
50,50,1.0,0.0,True,Letter designer,2,lexical,15,sansforgetica,financial,word,Sure word,1.0,,,1053,35,difficult to read,05-04-2019 12:16
51,51,1.0,0.0,True,Letter designer,2,lexical,16,sansforgetica,stories,word,Sure word,1.0,,,890,35,difficult to read,05-04-2019 12:16
52,52,1.0,0.0,True,Letter designer,2,lexical,17,sansforgetica,fissely,non-word,Sure non-word,1.0,,,1152,35,difficult to read,05-04-2019 12:16
53,53,1.0,0.0,True,Letter designer,2,lexical,18,sansforgetica,simplete,non-word,Probably word,0.0,,,1811,35,difficult to read,05-04-2019 12:16
54,54,1.0,0.0,True,Letter designer,2,lexical,19,sansforgetica,nontrantion,non-word,Probably non-word,1.0,,,3384,35,difficult to read,05-04-2019 12:16
55,55,1.0,0.0,True,Letter designer,2,lexical,20,sansforgetica,supply,word,Sure word,1.0,,,1225,35,difficult to read,05-04-2019 12:16
56,56,1.0,0.0,True,Letter designer,2,recognition,1,sansforgetica,teliquely,non-word,Sure not seen,1.0,not seen,tealissed,2300,35,difficult to read,05-04-2019 12:16
57,57,1.0,0.0,True,Letter designer,2,recognition,2,sansforgetica,trust,word,Sure seen,1.0,seen,trust,1152,35,difficult to read,05-04-2019 12:16
58,58,1.0,0.0,True,Letter designer,2,recognition,3,sansforgetica,maintenting,non-word,Sure seen,1.0,seen,maintenting,2039,35,difficult to read,05-04-2019 12:16
59,59,1.0,0.0,True,Letter designer,2,recognition,4,sansforgetica,goverpream,non-word,Sure seen,1.0,seen,goverpream,2957,35,difficult to read,05-04-2019 12:16
60,60,1.0,0.0,True,Letter designer,2,recognition,5,sansforgetica,simplete,non-word,Sure seen,1.0,seen,simplete,1428,35,difficult to read,05-04-2019 12:16
61,61,1.0,0.0,True,Letter designer,2,recognition,6,sansforgetica,third,word,Sure seen,1.0,seen,third,940,35,difficult to read,05-04-2019 12:16
62,62,1.0,0.0,True,Letter designer,2,recognition,7,sansforgetica,gradually,word,Probably not seen,1.0,not seen,government,1839,35,difficult to read,05-04-2019 12:16
63,63,1.0,0.0,True,Letter designer,2,recognition,8,sansforgetica,greathant,non-word,Sure not seen,1.0,not seen,gream,1386,35,difficult to read,05-04-2019 12:16
64,64,1.0,0.0,True,Letter designer,2,recognition,9,sansforgetica,finding,word,Probably seen,0.0,not seen,financial,2285,35,difficult to read,05-04-2019 12:16
65,65,1.0,0.0,True,Letter designer,2,recognition,10,sansforgetica,riner,non-word,Sure not seen,1.0,not seen,rincies,1274,35,difficult to read,05-04-2019 12:16
66,66,1.0,0.0,True,Letter designer,2,recognition,11,sansforgetica,purpose,word,Sure not seen,1.0,not seen,pulled,1465,35,difficult to read,05-04-2019 12:16
67,67,1.0,0.0,True,Letter designer,2,recognition,12,sansforgetica,stories,word,Sure seen,1.0,seen,stories,1118,35,difficult to read,05-04-2019 12:16
68,68,1.0,0.0,True,Letter designer,2,recognition,13,sansforgetica,supply,word,Sure seen,1.0,seen,supply,826,35,difficult to read,05-04-2019 12:16
69,69,1.0,0.0,True,Letter designer,2,recognition,14,sansforgetica,parts,word,Sure seen,0.0,not seen,partly,1036,35,difficult to read,05-04-2019 12:16
70,70,1.0,0.0,True,Letter designer,2,recognition,15,sansforgetica,fissity,non-word,Sure not seen,1.0,not seen,fissely,1238,35,difficult to read,05-04-2019 12:16
71,71,1.0,0.0,True,Letter designer,2,recognition,16,sansforgetica,nontrantion,non-word,Sure seen,1.0,seen,nontrantion,1813,35,difficult to read,05-04-2019 12:16
72,72,1.0,72.0,True,Letter designer,1,lexical,1,sansforgetica,objectial,non-word,Probably word,0.0,,,7498,25,difficult to read,05-04-2019 11:41
73,73,1.0,72.0,True,Letter designer,1,lexical,2,sansforgetica,minisity,non-word,Probably non-word,1.0,,,6528,25,difficult to read,05-04-2019 11:41
74,74,1.0,72.0,True,Letter designer,1,lexical,3,sansforgetica,wetween,non-word,Sure non-word,1.0,,,2967,25,difficult to read,05-04-2019 11:41
75,75,1.0,72.0,True,Letter designer,1,lexical,4,sansforgetica,standing,word,Sure word,1.0,,,2048,25,difficult to read,05-04-2019 11:41
76,76,1.0,72.0,True,Letter designer,1,lexical,5,sansforgetica,getting,word,Sure word,1.0,,,2848,25,difficult to read,05-04-2019 11:41
77,77,1.0,72.0,True,Letter designer,1,lexical,6,sansforgetica,disgrestors,non-word,Probably word,0.0,,,3768,25,difficult to read,05-04-2019 11:41
78,78,1.0,72.0,True,Letter designer,1,lexical,7,sansforgetica,having,word,Sure word,1.0,,,1416,25,difficult to read,05-04-2019 11:41
79,79,1.0,72.0,True,Letter designer,1,lexical,8,sansforgetica,settled,word,Sure word,1.0,,,1632,25,difficult to read,05-04-2019 11:41
80,80,1.0,72.0,True,Letter designer,1,lexical,9,sansforgetica,courch,non-word,Sure non-word,1.0,,,5185,25,difficult to read,05-04-2019 11:41
81,81,1.0,72.0,True,Letter designer,1,lexical,10,sansforgetica,riner,non-word,Probably non-word,1.0,,,7350,25,difficult to read,05-04-2019 11:41
82,82,1.0,72.0,True,Letter designer,1,lexical,11,sansforgetica,seriously,word,Sure word,1.0,,,1840,25,difficult to read,05-04-2019 11:41
83,83,1.0,72.0,True,Letter designer,1,lexical,12,sansforgetica,fashing,non-word,Probably non-word,1.0,,,6625,25,difficult to read,05-04-2019 11:41
84,84,1.0,72.0,True,Letter designer,1,lexical,13,sansforgetica,leaves,word,Sure word,1.0,,,3679,25,difficult to read,05-04-2019 11:41
85,85,1.0,72.0,True,Letter designer,1,lexical,14,sansforgetica,reasonatic,non-word,Probably non-word,1.0,,,3865,25,difficult to read,05-04-2019 11:41
86,86,1.0,72.0,True,Letter designer,1,lexical,15,sansforgetica,turning,word,Sure word,1.0,,,1967,25,difficult to read,05-04-2019 11:41
87,87,1.0,72.0,True,Letter designer,1,lexical,16,sansforgetica,pulled,word,Sure word,1.0,,,1393,25,difficult to read,05-04-2019 11:41
88,88,1.0,72.0,True,Letter designer,1,lexical,17,sansforgetica,conventment,non-word,Probably word,0.0,,,2678,25,difficult to read,05-04-2019 11:41
89,89,1.0,72.0,True,Letter designer,1,lexical,18,sansforgetica,faterb,non-word,Sure non-word,1.0,,,4450,25,difficult to read,05-04-2019 11:41
90,90,1.0,72.0,True,Letter designer,1,lexical,19,sansforgetica,recognize,word,Sure word,1.0,,,2151,25,difficult to read,05-04-2019 11:41
91,91,1.0,72.0,True,Letter designer,1,lexical,20,sansforgetica,general,word,Sure word,1.0,,,1240,25,difficult to read,05-04-2019 11:41
92,92,1.0,72.0,True,Letter designer,1,recognition,1,sansforgetica,leaves,word,Sure seen,1.0,seen,leaves,3640,25,difficult to read,05-04-2019 11:41
93,93,1.0,72.0,True,Letter designer,1,recognition,2,sansforgetica,servants,word,Sure not seen,1.0,not seen,seriously,4689,25,difficult to read,05-04-2019 11:41
94,94,1.0,72.0,True,Letter designer,1,recognition,3,sansforgetica,minned,non-word,Sure not seen,1.0,not seen,minisity,1695,25,difficult to read,05-04-2019 11:41
95,95,1.0,72.0,True,Letter designer,1,recognition,4,sansforgetica,courch,non-word,Sure seen,1.0,seen,courch,1911,25,difficult to read,05-04-2019 11:41
96,96,1.0,72.0,True,Letter designer,1,recognition,5,sansforgetica,whaiming,non-word,Sure not seen,1.0,not seen,wetween,1649,25,difficult to read,05-04-2019 11:41
97,97,1.0,72.0,True,Letter designer,1,recognition,6,sansforgetica,farkeyary,non-word,Sure not seen,1.0,not seen,fashing,1887,25,difficult to read,05-04-2019 11:41
98,98,1.0,72.0,True,Letter designer,1,recognition,7,sansforgetica,faterb,non-word,Sure seen,1.0,seen,faterb,2305,25,difficult to read,05-04-2019 11:41
99,99,1.0,72.0,True,Letter designer,1,recognition,8,sansforgetica,having,word,Sure seen,1.0,seen,having,1302,25,difficult to read,05-04-2019 11:41
100,100,1.0,72.0,True,Letter designer,1,recognition,9,sansforgetica,turning,word,Sure seen,1.0,seen,turning,2648,25,difficult to read,05-04-2019 11:41
101,101,1.0,72.0,True,Letter designer,1,recognition,10,sansforgetica,record,word,Probably not seen,1.0,not seen,recognize,6088,25,difficult to read,05-04-2019 11:41
102,102,1.0,72.0,True,Letter designer,1,recognition,11,sansforgetica,reasonatic,non-word,Probably seen,1.0,seen,reasonatic,6009,25,difficult to read,05-04-2019 11:41
103,103,1.0,72.0,True,Letter designer,1,recognition,12,sansforgetica,purpose,word,Probably not seen,1.0,not seen,pulled,2487,25,difficult to read,05-04-2019 11:41
104,104,1.0,72.0,True,Letter designer,1,recognition,13,sansforgetica,rivice,non-word,Probably not seen,1.0,not seen,riner,3833,25,difficult to read,05-04-2019 11:41
105,105,1.0,72.0,True,Letter designer,1,recognition,14,sansforgetica,general,word,Sure seen,1.0,seen,general,1367,25,difficult to read,05-04-2019 11:41
106,106,1.0,72.0,True,Letter designer,1,recognition,15,sansforgetica,disgrestors,non-word,Sure seen,1.0,seen,disgrestors,1688,25,difficult to read,05-04-2019 11:41
107,107,1.0,72.0,True,Letter designer,1,recognition,16,sansforgetica,seven,word,Sure not seen,1.0,not seen,settled,1689,25,difficult to read,05-04-2019 11:41
108,108,1.0,72.0,True,Letter designer,2,lexical,1,arial,essential,word,Sure word,1.0,,,2408,50,easy to read,05-04-2019 11:41
109,109,1.0,72.0,True,Letter designer,2,lexical,2,arial,surtine,non-word,Sure non-word,1.0,,,4129,50,easy to read,05-04-2019 11:41
110,110,1.0,72.0,True,Letter designer,2,lexical,3,arial,nation,word,Sure word,1.0,,,1576,50,easy to read,05-04-2019 11:41
111,111,1.0,72.0,True,Letter designer,2,lexical,4,arial,finally,word,Sure word,1.0,,,1103,50,easy to read,05-04-2019 11:41
112,112,1.0,72.0,True,Letter designer,2,lexical,5,arial,appresses,non-word,Probably non-word,1.0,,,6506,50,easy to read,05-04-2019 11:41
113,113,1.0,72.0,True,Letter designer,2,lexical,6,arial,greselect,non-word,Sure non-word,1.0,,,5398,50,easy to read,05-04-2019 11:41
114,114,1.0,72.0,True,Letter designer,2,lexical,7,arial,whainest,non-word,Probably word,0.0,,,2760,50,easy to read,05-04-2019 11:41
115,115,1.0,72.0,True,Letter designer,2,lexical,8,arial,mother,word,Sure word,1.0,,,1560,50,easy to read,05-04-2019 11:41
116,116,1.0,72.0,True,Letter designer,2,lexical,9,arial,natural,word,Sure word,1.0,,,2752,50,easy to read,05-04-2019 11:41
117,117,1.0,72.0,True,Letter designer,2,lexical,10,arial,thought,word,Sure word,1.0,,,1088,50,easy to read,05-04-2019 11:41
118,118,1.0,72.0,True,Letter designer,2,lexical,11,arial,lonour,non-word,Sure non-word,1.0,,,5751,50,easy to read,05-04-2019 11:41
119,119,1.0,72.0,True,Letter designer,2,lexical,12,arial,feels,word,Sure word,1.0,,,1816,50,easy to read,05-04-2019 11:41
120,120,1.0,72.0,True,Letter designer,2,lexical,13,arial,sligince,non-word,Sure non-word,1.0,,,1400,50,easy to read,05-04-2019 11:41
121,121,1.0,72.0,True,Letter designer,2,lexical,14,arial,trouble,word,Sure word,1.0,,,1264,50,easy to read,05-04-2019 11:41
122,122,1.0,72.0,True,Letter designer,2,lexical,15,arial,ideas,word,Sure word,1.0,,,1113,50,easy to read,05-04-2019 11:41
123,123,1.0,72.0,True,Letter designer,2,lexical,16,arial,londow,non-word,Probably word,0.0,,,5484,50,easy to read,05-04-2019 11:41
124,124,1.0,72.0,True,Letter designer,2,lexical,17,arial,backling,non-word,Probably word,0.0,,,1988,50,easy to read,05-04-2019 11:41
125,125,1.0,72.0,True,Letter designer,2,lexical,18,arial,manner,word,Sure word,1.0,,,1303,50,easy to read,05-04-2019 11:41
126,126,1.0,72.0,True,Letter designer,2,lexical,19,arial,exprinuous,non-word,Probably word,0.0,,,2528,50,easy to read,05-04-2019 11:41
127,127,1.0,72.0,True,Letter designer,2,lexical,20,arial,preance,non-word,Probably word,0.0,,,3192,50,easy to read,05-04-2019 11:41
128,128,1.0,72.0,True,Letter designer,2,recognition,1,arial,sligince,non-word,Probably not seen,0.0,seen,sligince,3558,50,easy to read,05-04-2019 11:41
129,129,1.0,72.0,True,Letter designer,2,recognition,2,arial,trust,word,Probably not seen,1.0,not seen,trouble,5679,50,easy to read,05-04-2019 11:41
130,130,1.0,72.0,True,Letter designer,2,recognition,3,arial,preance,non-word,Sure seen,1.0,seen,preance,1593,50,easy to read,05-04-2019 11:41
131,131,1.0,72.0,True,Letter designer,2,recognition,4,arial,financial,word,Sure not seen,1.0,not seen,finally,1601,50,easy to read,05-04-2019 11:41
132,132,1.0,72.0,True,Letter designer,2,recognition,5,arial,essential,word,Sure seen,1.0,seen,essential,1672,50,easy to read,05-04-2019 11:41
133,133,1.0,72.0,True,Letter designer,2,recognition,6,arial,ideas,word,Sure seen,1.0,seen,ideas,1015,50,easy to read,05-04-2019 11:41
134,134,1.0,72.0,True,Letter designer,2,recognition,7,arial,appressite,non-word,Sure seen,0.0,not seen,appresses,2176,50,easy to read,05-04-2019 11:41
135,135,1.0,72.0,True,Letter designer,2,recognition,8,arial,backling,non-word,Sure seen,1.0,seen,backling,1136,50,easy to read,05-04-2019 11:41
136,136,1.0,72.0,True,Letter designer,2,recognition,9,arial,lonour,non-word,Sure seen,1.0,seen,lonour,1112,50,easy to read,05-04-2019 11:41
137,137,1.0,72.0,True,Letter designer,2,recognition,10,arial,national,word,Sure seen,0.0,not seen,nation,1032,50,easy to read,05-04-2019 11:41
138,138,1.0,72.0,True,Letter designer,2,recognition,11,arial,thought,word,Sure seen,1.0,seen,thought,904,50,easy to read,05-04-2019 11:41
139,139,1.0,72.0,True,Letter designer,2,recognition,12,arial,mother,word,Sure seen,1.0,seen,mother,888,50,easy to read,05-04-2019 11:41
140,140,1.0,72.0,True,Letter designer,2,recognition,13,arial,extremics,non-word,Sure not seen,1.0,not seen,exprinuous,1656,50,easy to read,05-04-2019 11:41
141,141,1.0,72.0,True,Letter designer,2,recognition,14,arial,lonnot,non-word,Sure not seen,1.0,not seen,londow,1736,50,easy to read,05-04-2019 11:41
142,142,1.0,72.0,True,Letter designer,2,recognition,15,arial,griends,non-word,Sure not seen,1.0,not seen,greselect,1512,50,easy to read,05-04-2019 11:41
143,143,1.0,72.0,True,Letter designer,2,recognition,16,arial,market,word,Sure not seen,1.0,not seen,manner,3016,50,easy to read,05-04-2019 11:41
144,144,1.0,144.0,True,Non-designer,1,lexical,1,sansforgetica,responsible,word,Sure word,1.0,,,2104,35,difficult to read,05-04-2019 09:45
145,145,1.0,144.0,True,Non-designer,1,lexical,2,sansforgetica,centoment,non-word,Sure non-word,1.0,,,2204,35,difficult to read,05-04-2019 09:45
146,146,1.0,144.0,True,Non-designer,1,lexical,3,sansforgetica,basis,word,Sure word,1.0,,,1521,35,difficult to read,05-04-2019 09:45
147,147,1.0,144.0,True,Non-designer,1,lexical,4,sansforgetica,tealissed,non-word,Sure non-word,1.0,,,2136,35,difficult to read,05-04-2019 09:45
148,148,1.0,144.0,True,Non-designer,1,lexical,5,sansforgetica,rectined,non-word,Sure non-word,1.0,,,4285,35,difficult to read,05-04-2019 09:45
149,149,1.0,144.0,True,Non-designer,1,lexical,6,sansforgetica,unpligatic,non-word,Sure non-word,1.0,,,1880,35,difficult to read,05-04-2019 09:45
150,150,1.0,144.0,True,Non-designer,1,lexical,7,sansforgetica,attermingly,non-word,Sure non-word,1.0,,,1769,35,difficult to read,05-04-2019 09:45
151,151,1.0,144.0,True,Non-designer,1,lexical,8,sansforgetica,suggest,word,Sure word,1.0,,,1562,35,difficult to read,05-04-2019 09:45
152,152,1.0,144.0,True,Non-designer,1,lexical,9,sansforgetica,disruptics,non-word,Probably non-word,1.0,,,2575,35,difficult to read,05-04-2019 09:45
153,153,1.0,144.0,True,Non-designer,1,lexical,10,sansforgetica,energy,word,Sure word,1.0,,,1316,35,difficult to read,05-04-2019 09:45
154,154,1.0,144.0,True,Non-designer,1,lexical,11,sansforgetica,winnic,non-word,Sure non-word,1.0,,,2285,35,difficult to read,05-04-2019 09:45
155,155,1.0,144.0,True,Non-designer,1,lexical,12,sansforgetica,established,word,Sure word,1.0,,,1778,35,difficult to read,05-04-2019 09:45
156,156,1.0,144.0,True,Non-designer,1,lexical,13,sansforgetica,breath,word,Sure word,1.0,,,1200,35,difficult to read,05-04-2019 09:45
157,157,1.0,144.0,True,Non-designer,1,lexical,14,sansforgetica,clean,word,Sure word,1.0,,,1519,35,difficult to read,05-04-2019 09:45
158,158,1.0,144.0,True,Non-designer,1,lexical,15,sansforgetica,being,word,Sure word,1.0,,,1080,35,difficult to read,05-04-2019 09:45
159,159,1.0,144.0,True,Non-designer,1,lexical,16,sansforgetica,upties,non-word,Probably non-word,1.0,,,2677,35,difficult to read,05-04-2019 09:45
160,160,1.0,144.0,True,Non-designer,1,lexical,17,sansforgetica,stories,word,Sure word,1.0,,,1429,35,difficult to read,05-04-2019 09:45
161,161,1.0,144.0,True,Non-designer,1,lexical,18,sansforgetica,mealth,non-word,Sure non-word,1.0,,,2509,35,difficult to read,05-04-2019 09:45
162,162,1.0,144.0,True,Non-designer,1,lexical,19,sansforgetica,principle,word,Sure word,1.0,,,1699,35,difficult to read,05-04-2019 09:45
163,163,1.0,144.0,True,Non-designer,1,lexical,20,sansforgetica,stradfules,non-word,Sure non-word,1.0,,,2553,35,difficult to read,05-04-2019 09:45
164,164,1.0,144.0,True,Non-designer,1,recognition,1,sansforgetica,principle,word,Sure seen,1.0,seen,principle,2349,35,difficult to read,05-04-2019 09:45
165,165,1.0,144.0,True,Non-designer,1,recognition,2,sansforgetica,straight,word,Sure not seen,1.0,not seen,stories,2925,35,difficult to read,05-04-2019 09:45
166,166,1.0,144.0,True,Non-designer,1,recognition,3,sansforgetica,winnot,non-word,Sure seen,0.0,not seen,winnic,3296,35,difficult to read,05-04-2019 09:45
167,167,1.0,144.0,True,Non-designer,1,recognition,4,sansforgetica,energy,word,Sure seen,1.0,seen,energy,1205,35,difficult to read,05-04-2019 09:45
168,168,1.0,144.0,True,Non-designer,1,recognition,5,sansforgetica,summer,word,Sure not seen,1.0,not seen,suggest,2115,35,difficult to read,05-04-2019 09:45
169,169,1.0,144.0,True,Non-designer,1,recognition,6,sansforgetica,attermingly,non-word,Sure seen,1.0,seen,attermingly,2035,35,difficult to read,05-04-2019 09:45
170,170,1.0,144.0,True,Non-designer,1,recognition,7,sansforgetica,being,word,Sure seen,1.0,seen,being,2498,35,difficult to read,05-04-2019 09:45
171,171,1.0,144.0,True,Non-designer,1,recognition,8,sansforgetica,dissehons,non-word,Sure not seen,1.0,not seen,disruptics,2553,35,difficult to read,05-04-2019 09:45
172,172,1.0,144.0,True,Non-designer,1,recognition,9,sansforgetica,battle,word,Sure not seen,1.0,not seen,basis,1642,35,difficult to read,05-04-2019 09:45
173,173,1.0,144.0,True,Non-designer,1,recognition,10,sansforgetica,tealissed,non-word,Sure seen,1.0,seen,tealissed,1926,35,difficult to read,05-04-2019 09:45
174,174,1.0,144.0,True,Non-designer,1,recognition,11,sansforgetica,upties,non-word,Sure seen,1.0,seen,upties,1371,35,difficult to read,05-04-2019 09:45
175,175,1.0,144.0,True,Non-designer,1,recognition,12,sansforgetica,bridge,word,Sure not seen,1.0,not seen,breath,3018,35,difficult to read,05-04-2019 09:45
176,176,1.0,144.0,True,Non-designer,1,recognition,13,sansforgetica,responsible,word,Probably not seen,0.0,seen,responsible,4046,35,difficult to read,05-04-2019 09:45
177,177,1.0,144.0,True,Non-designer,1,recognition,14,sansforgetica,mealth,non-word,Sure seen,1.0,seen,mealth,2172,35,difficult to read,05-04-2019 09:45
178,178,1.0,144.0,True,Non-designer,1,recognition,15,sansforgetica,refectuning,non-word,Probably not seen,1.0,not seen,rectined,4881,35,difficult to read,05-04-2019 09:45
179,179,1.0,144.0,True,Non-designer,1,recognition,16,sansforgetica,untin,non-word,Probably not seen,1.0,not seen,unpligatic,3106,35,difficult to read,05-04-2019 09:45
180,180,1.0,144.0,True,Non-designer,2,lexical,1,arial,species,word,Sure word,1.0,,,2118,41,easy to read,05-04-2019 09:45
181,181,1.0,144.0,True,Non-designer,2,lexical,2,arial,accumplate,non-word,Sure non-word,1.0,,,1630,41,easy to read,05-04-2019 09:45
182,182,1.0,144.0,True,Non-designer,2,lexical,3,arial,store,word,Sure word,1.0,,,1697,41,easy to read,05-04-2019 09:45
183,183,1.0,144.0,True,Non-designer,2,lexical,4,arial,narrow,word,Sure word,1.0,,,969,41,easy to read,05-04-2019 09:45
184,184,1.0,144.0,True,Non-designer,2,lexical,5,arial,windom,non-word,Sure non-word,1.0,,,1938,41,easy to read,05-04-2019 09:45
185,185,1.0,144.0,True,Non-designer,2,lexical,6,arial,relitical,non-word,Sure non-word,1.0,,,1459,41,easy to read,05-04-2019 09:45
186,186,1.0,144.0,True,Non-designer,2,lexical,7,arial,better,word,Sure word,1.0,,,1327,41,easy to read,05-04-2019 09:45
187,187,1.0,144.0,True,Non-designer,2,lexical,8,arial,production,word,Sure word,1.0,,,1327,41,easy to read,05-04-2019 09:45
188,188,1.0,144.0,True,Non-designer,2,lexical,9,arial,worelete,non-word,Sure non-word,1.0,,,3084,41,easy to read,05-04-2019 09:45
189,189,1.0,144.0,True,Non-designer,2,lexical,10,arial,midonious,non-word,Sure non-word,1.0,,,1316,41,easy to read,05-04-2019 09:45
190,190,1.0,144.0,True,Non-designer,2,lexical,11,arial,considered,word,Sure word,1.0,,,1440,41,easy to read,05-04-2019 09:45
191,191,1.0,144.0,True,Non-designer,2,lexical,12,arial,amerying,non-word,Sure non-word,1.0,,,2542,41,easy to read,05-04-2019 09:45
192,192,1.0,144.0,True,Non-designer,2,lexical,13,arial,lunch,word,Sure word,1.0,,,1360,41,easy to read,05-04-2019 09:45
193,193,1.0,144.0,True,Non-designer,2,lexical,14,arial,painting,word,Sure word,1.0,,,1047,41,easy to read,05-04-2019 09:45
194,194,1.0,144.0,True,Non-designer,2,lexical,15,arial,roaked,non-word,Sure non-word,1.0,,,1968,41,easy to read,05-04-2019 09:45
195,195,1.0,144.0,True,Non-designer,2,lexical,16,arial,provide,word,Sure word,1.0,,,1194,41,easy to read,05-04-2019 09:45
196,196,1.0,144.0,True,Non-designer,2,lexical,17,arial,sometched,non-word,Sure non-word,1.0,,,1697,41,easy to read,05-04-2019 09:45
197,197,1.0,144.0,True,Non-designer,2,lexical,18,arial,heard,word,Sure word,1.0,,,2014,41,easy to read,05-04-2019 09:45
198,198,1.0,144.0,True,Non-designer,2,lexical,19,arial,drojects,non-word,Sure non-word,1.0,,,2576,41,easy to read,05-04-2019 09:45
199,199,1.0,144.0,True,Non-designer,2,lexical,20,arial,temarrences,non-word,Sure non-word,1.0,,,1722,41,easy to read,05-04-2019 09:45
200,200,1.0,144.0,True,Non-designer,2,recognition,1,arial,store,word,Sure seen,1.0,seen,store,2587,41,easy to read,05-04-2019 09:45
201,201,1.0,144.0,True,Non-designer,2,recognition,2,arial,tempriation,non-word,Sure not seen,1.0,not seen,temarrences,1981,41,easy to read,05-04-2019 09:45
202,202,1.0,144.0,True,Non-designer,2,recognition,3,arial,drojects,non-word,Sure seen,1.0,seen,drojects,2136,41,easy to read,05-04-2019 09:45
203,203,1.0,144.0,True,Non-designer,2,recognition,4,arial,sometions,non-word,Sure not seen,1.0,not seen,sometched,1982,41,easy to read,05-04-2019 09:45
204,204,1.0,144.0,True,Non-designer,2,recognition,5,arial,amerying,non-word,Sure seen,1.0,seen,amerying,1552,41,easy to read,05-04-2019 09:45
205,205,1.0,144.0,True,Non-designer,2,recognition,6,arial,between,word,Sure not seen,1.0,not seen,better,2969,41,easy to read,05-04-2019 09:45
206,206,1.0,144.0,True,Non-designer,2,recognition,7,arial,public,word,Sure not seen,1.0,not seen,provide,1912,41,easy to read,05-04-2019 09:45
207,207,1.0,144.0,True,Non-designer,2,recognition,8,arial,papers,word,Sure not seen,1.0,not seen,painting,1440,41,easy to read,05-04-2019 09:45
208,208,1.0,144.0,True,Non-designer,2,recognition,9,arial,heard,word,Probably not seen,0.0,seen,heard,1507,41,easy to read,05-04-2019 09:45
209,209,1.0,144.0,True,Non-designer,2,recognition,10,arial,relitical,non-word,Sure seen,1.0,seen,relitical,1496,41,easy to read,05-04-2019 09:45
210,210,1.0,144.0,True,Non-designer,2,recognition,11,arial,milently,non-word,Probably seen,0.0,not seen,midonious,2251,41,easy to read,05-04-2019 09:45
211,211,1.0,144.0,True,Non-designer,2,recognition,12,arial,production,word,Sure seen,1.0,seen,production,1271,41,easy to read,05-04-2019 09:45
212,212,1.0,144.0,True,Non-designer,2,recognition,13,arial,worelete,non-word,Sure seen,1.0,seen,worelete,1586,41,easy to read,05-04-2019 09:45
213,213,1.0,144.0,True,Non-designer,2,recognition,14,arial,romoting,non-word,Sure not seen,1.0,not seen,roaked,1834,41,easy to read,05-04-2019 09:45
214,214,1.0,144.0,True,Non-designer,2,recognition,15,arial,narrow,word,Sure seen,1.0,seen,narrow,1215,41,easy to read,05-04-2019 09:45
215,215,1.0,144.0,True,Non-designer,2,recognition,16,arial,speech,word,Probably seen,0.0,not seen,species,3307,41,easy to read,05-04-2019 09:45
216,216,1.0,216.0,True,Graphic designer,1,lexical,1,sansforgetica,drink,word,Sure word,1.0,,,2574,60,ok,05-04-2019 04:23
217,217,1.0,216.0,True,Graphic designer,1,lexical,2,sansforgetica,successful,word,Sure word,1.0,,,2827,60,ok,05-04-2019 04:23
218,218,1.0,216.0,True,Graphic designer,1,lexical,3,sansforgetica,antendship,non-word,Probably word,0.0,,,3039,60,ok,05-04-2019 04:23
219,219,1.0,216.0,True,Graphic designer,1,lexical,4,sansforgetica,villsite,non-word,Probably non-word,1.0,,,3515,60,ok,05-04-2019 04:23
220,220,1.0,216.0,True,Graphic designer,1,lexical,5,sansforgetica,furning,non-word,Probably word,0.0,,,2968,60,ok,05-04-2019 04:23
221,221,1.0,216.0,True,Graphic designer,1,lexical,6,sansforgetica,garden,word,Sure word,1.0,,,2312,60,ok,05-04-2019 04:23
222,222,1.0,216.0,True,Graphic designer,1,lexical,7,sansforgetica,pronomail,non-word,Probably non-word,1.0,,,4141,60,ok,05-04-2019 04:23
223,223,1.0,216.0,True,Graphic designer,1,lexical,8,sansforgetica,species,word,Sure word,1.0,,,2379,60,ok,05-04-2019 04:23
224,224,1.0,216.0,True,Graphic designer,1,lexical,9,sansforgetica,exist,word,Sure word,1.0,,,2899,60,ok,05-04-2019 04:23
225,225,1.0,216.0,True,Graphic designer,1,lexical,10,sansforgetica,butlized,non-word,Probably non-word,1.0,,,3406,60,ok,05-04-2019 04:23
226,226,1.0,216.0,True,Graphic designer,1,lexical,11,sansforgetica,primals,non-word,Probably word,0.0,,,4308,60,ok,05-04-2019 04:23
227,227,1.0,216.0,True,Graphic designer,1,lexical,12,sansforgetica,speed,word,Sure word,1.0,,,1795,60,ok,05-04-2019 04:23
228,228,1.0,216.0,True,Graphic designer,1,lexical,13,sansforgetica,explitition,non-word,Probably word,0.0,,,2674,60,ok,05-04-2019 04:23
229,229,1.0,216.0,True,Graphic designer,1,lexical,14,sansforgetica,press,word,Sure word,1.0,,,1643,60,ok,05-04-2019 04:23
230,230,1.0,216.0,True,Graphic designer,1,lexical,15,sansforgetica,fament,non-word,Probably non-word,1.0,,,3170,60,ok,05-04-2019 04:23
231,231,1.0,216.0,True,Graphic designer,1,lexical,16,sansforgetica,couster,non-word,Probably non-word,1.0,,,4849,60,ok,05-04-2019 04:23
232,232,1.0,216.0,True,Graphic designer,1,lexical,17,sansforgetica,valeamer,non-word,Probably non-word,1.0,,,4732,60,ok,05-04-2019 04:23
233,233,1.0,216.0,True,Graphic designer,1,lexical,18,sansforgetica,couple,word,Sure word,1.0,,,3700,60,ok,05-04-2019 04:23
234,234,1.0,216.0,True,Graphic designer,1,lexical,19,sansforgetica,regular,word,Sure word,1.0,,,2274,60,ok,05-04-2019 04:23
235,235,1.0,216.0,True,Graphic designer,1,lexical,20,sansforgetica,holiday,word,Sure word,1.0,,,1707,60,ok,05-04-2019 04:23
236,236,1.0,216.0,True,Graphic designer,1,recognition,1,sansforgetica,valeamer,non-word,Sure seen,1.0,seen,valeamer,3100,60,ok,05-04-2019 04:23
237,237,1.0,216.0,True,Graphic designer,1,recognition,2,sansforgetica,relations,word,Sure not seen,1.0,not seen,regular,6203,60,ok,05-04-2019 04:23
238,238,1.0,216.0,True,Graphic designer,1,recognition,3,sansforgetica,violetic,non-word,Sure not seen,1.0,not seen,villsite,2202,60,ok,05-04-2019 04:23
239,239,1.0,216.0,True,Graphic designer,1,recognition,4,sansforgetica,speech,word,Sure not seen,1.0,not seen,species,3049,60,ok,05-04-2019 04:23
240,240,1.0,216.0,True,Graphic designer,1,recognition,5,sansforgetica,exist,word,Sure seen,1.0,seen,exist,1843,60,ok,05-04-2019 04:23
241,241,1.0,216.0,True,Graphic designer,1,recognition,6,sansforgetica,general,word,Sure not seen,1.0,not seen,garden,3401,60,ok,05-04-2019 04:23
242,242,1.0,216.0,True,Graphic designer,1,recognition,7,sansforgetica,courses,word,Probably seen,0.0,not seen,couple,4357,60,ok,05-04-2019 04:23
243,243,1.0,216.0,True,Graphic designer,1,recognition,8,sansforgetica,press,word,Sure seen,1.0,seen,press,1803,60,ok,05-04-2019 04:23
244,244,1.0,216.0,True,Graphic designer,1,recognition,9,sansforgetica,pronomail,non-word,Sure seen,1.0,seen,pronomail,7358,60,ok,05-04-2019 04:23
245,245,1.0,216.0,True,Graphic designer,1,recognition,10,sansforgetica,explowed,non-word,Sure not seen,1.0,not seen,explitition,2361,60,ok,05-04-2019 04:23
246,246,1.0,216.0,True,Graphic designer,1,recognition,11,sansforgetica,antendship,non-word,Sure not seen,0.0,seen,antendship,2064,60,ok,05-04-2019 04:23
247,247,1.0,216.0,True,Graphic designer,1,recognition,12,sansforgetica,holiday,word,Sure seen,1.0,seen,holiday,1774,60,ok,05-04-2019 04:23
248,248,1.0,216.0,True,Graphic designer,1,recognition,13,sansforgetica,butlized,non-word,Sure seen,1.0,seen,butlized,2429,60,ok,05-04-2019 04:23
249,249,1.0,216.0,True,Graphic designer,1,recognition,14,sansforgetica,crepards,non-word,Sure not seen,1.0,not seen,couster,1835,60,ok,05-04-2019 04:23
250,250,1.0,216.0,True,Graphic designer,1,recognition,15,sansforgetica,pritain,non-word,Sure not seen,1.0,not seen,primals,2246,60,ok,05-04-2019 04:23
251,251,1.0,216.0,True,Graphic designer,1,recognition,16,sansforgetica,successful,word,Sure seen,1.0,seen,successful,1751,60,ok,05-04-2019 04:23
252,252,1.0,216.0,True,Graphic designer,2,lexical,1,arial,winnot,non-word,Probably non-word,1.0,,,6826,46,easy to read,05-04-2019 04:23
253,253,1.0,216.0,True,Graphic designer,2,lexical,2,arial,childred,non-word,Probably non-word,1.0,,,2157,46,easy to read,05-04-2019 04:23
254,254,1.0,216.0,True,Graphic designer,2,lexical,3,arial,chaminue,non-word,Probably non-word,1.0,,,4077,46,easy to read,05-04-2019 04:23
255,255,1.0,216.0,True,Graphic designer,2,lexical,4,arial,stayed,word,Probably non-word,0.0,,,3676,46,easy to read,05-04-2019 04:23
256,256,1.0,216.0,True,Graphic designer,2,lexical,5,arial,discrings,non-word,Probably non-word,1.0,,,2149,46,easy to read,05-04-2019 04:23
257,257,1.0,216.0,True,Graphic designer,2,lexical,6,arial,simplete,non-word,Probably non-word,1.0,,,1939,46,easy to read,05-04-2019 04:23
258,258,1.0,216.0,True,Graphic designer,2,lexical,7,arial,heart,word,Sure word,1.0,,,2877,46,easy to read,05-04-2019 04:23
259,259,1.0,216.0,True,Graphic designer,2,lexical,8,arial,worst,word,Sure word,1.0,,,2029,46,easy to read,05-04-2019 04:23
260,260,1.0,216.0,True,Graphic designer,2,lexical,9,arial,smell,word,Sure word,1.0,,,1438,46,easy to read,05-04-2019 04:23
261,261,1.0,216.0,True,Graphic designer,2,lexical,10,arial,sitting,word,Sure word,1.0,,,1389,46,easy to read,05-04-2019 04:23
262,262,1.0,216.0,True,Graphic designer,2,lexical,11,arial,hopulatute,non-word,Sure non-word,1.0,,,4698,46,easy to read,05-04-2019 04:23
263,263,1.0,216.0,True,Graphic designer,2,lexical,12,arial,consicular,non-word,Probably non-word,1.0,,,2118,46,easy to read,05-04-2019 04:23
264,264,1.0,216.0,True,Graphic designer,2,lexical,13,arial,stick,word,Sure word,1.0,,,1575,46,easy to read,05-04-2019 04:23
265,265,1.0,216.0,True,Graphic designer,2,lexical,14,arial,brisis,non-word,Probably non-word,1.0,,,2432,46,easy to read,05-04-2019 04:23
266,266,1.0,216.0,True,Graphic designer,2,lexical,15,arial,afford,word,Sure word,1.0,,,1643,46,easy to read,05-04-2019 04:23
267,267,1.0,216.0,True,Graphic designer,2,lexical,16,arial,parliament,word,Sure word,1.0,,,1382,46,easy to read,05-04-2019 04:23
268,268,1.0,216.0,True,Graphic designer,2,lexical,17,arial,trade,word,Sure word,1.0,,,1586,46,easy to read,05-04-2019 04:23
269,269,1.0,216.0,True,Graphic designer,2,lexical,18,arial,chaped,non-word,Probably word,0.0,,,2878,46,easy to read,05-04-2019 04:23
270,270,1.0,216.0,True,Graphic designer,2,lexical,19,arial,weapons,word,Sure word,1.0,,,1555,46,easy to read,05-04-2019 04:23
271,271,1.0,216.0,True,Graphic designer,2,lexical,20,arial,descussed,non-word,Sure non-word,1.0,,,3288,46,easy to read,05-04-2019 04:23
272,272,1.0,216.0,True,Graphic designer,2,recognition,1,arial,trade,word,Sure seen,1.0,seen,trade,3929,46,easy to read,05-04-2019 04:23
273,273,1.0,216.0,True,Graphic designer,2,recognition,2,arial,withous,non-word,Sure not seen,1.0,not seen,winnot,1999,46,easy to read,05-04-2019 04:23
274,274,1.0,216.0,True,Graphic designer,2,recognition,3,arial,chares,non-word,Sure not seen,1.0,not seen,chaped,2273,46,easy to read,05-04-2019 04:23
275,275,1.0,216.0,True,Graphic designer,2,recognition,4,arial,hopulatute,non-word,Sure seen,1.0,seen,hopulatute,2950,46,easy to read,05-04-2019 04:23
276,276,1.0,216.0,True,Graphic designer,2,recognition,5,arial,afraid,word,Probably seen,0.0,not seen,afford,3202,46,easy to read,05-04-2019 04:23
277,277,1.0,216.0,True,Graphic designer,2,recognition,6,arial,discrings,non-word,Probably seen,1.0,seen,discrings,2091,46,easy to read,05-04-2019 04:23
278,278,1.0,216.0,True,Graphic designer,2,recognition,7,arial,champance,non-word,Probably seen,0.0,not seen,chaminue,3555,46,easy to read,05-04-2019 04:23
279,279,1.0,216.0,True,Graphic designer,2,recognition,8,arial,descussed,non-word,Sure seen,1.0,seen,descussed,3196,46,easy to read,05-04-2019 04:23
280,280,1.0,216.0,True,Graphic designer,2,recognition,9,arial,smell,word,Probably seen,1.0,seen,smell,2410,46,easy to read,05-04-2019 04:23
281,281,1.0,216.0,True,Graphic designer,2,recognition,10,arial,weapons,word,Sure seen,1.0,seen,weapons,2570,46,easy to read,05-04-2019 04:23
282,282,1.0,216.0,True,Graphic designer,2,recognition,11,arial,still,word,Probably seen,0.0,not seen,stick,2179,46,easy to read,05-04-2019 04:23
283,283,1.0,216.0,True,Graphic designer,2,recognition,12,arial,steps,word,Probably seen,0.0,not seen,stayed,1808,46,easy to read,05-04-2019 04:23
284,284,1.0,216.0,True,Graphic designer,2,recognition,13,arial,sitting,word,Probably seen,1.0,seen,sitting,1936,46,easy to read,05-04-2019 04:23
285,285,1.0,216.0,True,Graphic designer,2,recognition,14,arial,sisture,non-word,Sure not seen,1.0,not seen,simplete,2026,46,easy to read,05-04-2019 04:23
286,286,1.0,216.0,True,Graphic designer,2,recognition,15,arial,heavily,word,Sure not seen,1.0,not seen,heart,1717,46,easy to read,05-04-2019 04:23
287,287,1.0,216.0,True,Graphic designer,2,recognition,16,arial,brisis,non-word,Sure not seen,0.0,seen,brisis,1841,46,easy to read,05-04-2019 04:23
288,288,1.0,288.0,True,Non-designer,1,lexical,1,arial,unpligatic,non-word,Sure non-word,1.0,,,3144,69,very easy to read,04-04-2019 22:31
289,289,1.0,288.0,True,Non-designer,1,lexical,2,arial,thrughts,non-word,Sure non-word,1.0,,,2866,69,very easy to read,04-04-2019 22:31
290,290,1.0,288.0,True,Non-designer,1,lexical,3,arial,lived,word,Sure word,1.0,,,2240,69,very easy to read,04-04-2019 22:31
291,291,1.0,288.0,True,Non-designer,1,lexical,4,arial,discussion,word,Sure word,1.0,,,1874,69,very easy to read,04-04-2019 22:31
292,292,1.0,288.0,True,Non-designer,1,lexical,5,arial,settled,word,Sure word,1.0,,,1854,69,very easy to read,04-04-2019 22:31
293,293,1.0,288.0,True,Non-designer,1,lexical,6,arial,safety,word,Sure word,1.0,,,1747,69,very easy to read,04-04-2019 22:31
294,294,1.0,288.0,True,Non-designer,1,lexical,7,arial,places,word,Sure word,1.0,,,1868,69,very easy to read,04-04-2019 22:31
295,295,1.0,288.0,True,Non-designer,1,lexical,8,arial,removed,word,Sure word,1.0,,,1972,69,very easy to read,04-04-2019 22:31
296,296,1.0,288.0,True,Non-designer,1,lexical,9,arial,answered,word,Sure word,1.0,,,1741,69,very easy to read,04-04-2019 22:31
297,297,1.0,288.0,True,Non-designer,1,lexical,10,arial,second,word,Sure word,1.0,,,1749,69,very easy to read,04-04-2019 22:31
298,298,1.0,288.0,True,Non-designer,1,lexical,11,arial,meade,non-word,Probably word,0.0,,,4295,69,very easy to read,04-04-2019 22:31
299,299,1.0,288.0,True,Non-designer,1,lexical,12,arial,mingerned,non-word,Sure non-word,1.0,,,3325,69,very easy to read,04-04-2019 22:31
300,300,1.0,288.0,True,Non-designer,1,lexical,13,arial,mershiaties,non-word,Sure non-word,1.0,,,2859,69,very easy to read,04-04-2019 22:31
301,301,1.0,288.0,True,Non-designer,1,lexical,14,arial,individered,non-word,Sure non-word,1.0,,,2609,69,very easy to read,04-04-2019 22:31
302,302,1.0,288.0,True,Non-designer,1,lexical,15,arial,otherwise,word,Sure word,1.0,,,2131,69,very easy to read,04-04-2019 22:31
303,303,1.0,288.0,True,Non-designer,1,lexical,16,arial,housement,non-word,Probably word,0.0,,,3947,69,very easy to read,04-04-2019 22:31
304,304,1.0,288.0,True,Non-designer,1,lexical,17,arial,entervished,non-word,Sure non-word,1.0,,,3458,69,very easy to read,04-04-2019 22:31
305,305,1.0,288.0,True,Non-designer,1,lexical,18,arial,genastially,non-word,Probably non-word,1.0,,,3182,69,very easy to read,04-04-2019 22:31
306,306,1.0,288.0,True,Non-designer,1,lexical,19,arial,physical,word,Sure word,1.0,,,1971,69,very easy to read,04-04-2019 22:31
307,307,1.0,288.0,True,Non-designer,1,lexical,20,arial,pillern,non-word,Probably word,0.0,,,3799,69,very easy to read,04-04-2019 22:31
308,308,1.0,288.0,True,Non-designer,1,recognition,1,arial,safety,word,Sure seen,1.0,seen,safety,2280,69,very easy to read,04-04-2019 22:31
309,309,1.0,288.0,True,Non-designer,1,recognition,2,arial,anybody,word,Sure not seen,1.0,not seen,answered,2754,69,very easy to read,04-04-2019 22:31
310,310,1.0,288.0,True,Non-designer,1,recognition,3,arial,discussion,word,Sure seen,1.0,seen,discussion,1834,69,very easy to read,04-04-2019 22:31
311,311,1.0,288.0,True,Non-designer,1,recognition,4,arial,individered,non-word,Sure seen,1.0,seen,individered,2803,69,very easy to read,04-04-2019 22:31
312,312,1.0,288.0,True,Non-designer,1,recognition,5,arial,plactarshed,non-word,Sure seen,0.0,not seen,pillern,3876,69,very easy to read,04-04-2019 22:31
313,313,1.0,288.0,True,Non-designer,1,recognition,6,arial,mesters,non-word,Sure not seen,1.0,not seen,mershiaties,2561,69,very easy to read,04-04-2019 22:31
314,314,1.0,288.0,True,Non-designer,1,recognition,7,arial,entivisive,non-word,Probably seen,0.0,not seen,entervished,3724,69,very easy to read,04-04-2019 22:31
315,315,1.0,288.0,True,Non-designer,1,recognition,8,arial,thrughts,non-word,Sure seen,1.0,seen,thrughts,2302,69,very easy to read,04-04-2019 22:31
316,316,1.0,288.0,True,Non-designer,1,recognition,9,arial,removed,word,Probably seen,1.0,seen,removed,3083,69,very easy to read,04-04-2019 22:31
317,317,1.0,288.0,True,Non-designer,1,recognition,10,arial,picked,word,Probably seen,0.0,not seen,physical,2645,69,very easy to read,04-04-2019 22:31
318,318,1.0,288.0,True,Non-designer,1,recognition,11,arial,genastially,non-word,Sure seen,1.0,seen,genastially,2240,69,very easy to read,04-04-2019 22:31
319,319,1.0,288.0,True,Non-designer,1,recognition,12,arial,meaftsmas,non-word,Probably not seen,1.0,not seen,meade,5218,69,very easy to read,04-04-2019 22:31
320,320,1.0,288.0,True,Non-designer,1,recognition,13,arial,unpligatic,non-word,Sure seen,1.0,seen,unpligatic,2319,69,very easy to read,04-04-2019 22:31
321,321,1.0,288.0,True,Non-designer,1,recognition,14,arial,secret,word,Probably seen,0.0,not seen,second,3607,69,very easy to read,04-04-2019 22:31
322,322,1.0,288.0,True,Non-designer,1,recognition,15,arial,settled,word,Sure seen,1.0,seen,settled,2138,69,very easy to read,04-04-2019 22:31
323,323,1.0,288.0,True,Non-designer,1,recognition,16,arial,living,word,Sure seen,0.0,not seen,lived,1956,69,very easy to read,04-04-2019 22:31
324,324,1.0,288.0,True,Non-designer,2,lexical,1,sansforgetica,cloature,non-word,Probably non-word,1.0,,,4050,44,very difficult to read,04-04-2019 22:31
325,325,1.0,288.0,True,Non-designer,2,lexical,2,sansforgetica,reasonatic,non-word,Probably non-word,1.0,,,3045,44,very difficult to read,04-04-2019 22:31
326,326,1.0,288.0,True,Non-designer,2,lexical,3,sansforgetica,weises,non-word,Sure non-word,1.0,,,3682,44,very difficult to read,04-04-2019 22:31
327,327,1.0,288.0,True,Non-designer,2,lexical,4,sansforgetica,contrimenty,non-word,Probably non-word,1.0,,,3976,44,very difficult to read,04-04-2019 22:31
328,328,1.0,288.0,True,Non-designer,2,lexical,5,sansforgetica,utteral,non-word,Probably word,0.0,,,4234,44,very difficult to read,04-04-2019 22:31
329,329,1.0,288.0,True,Non-designer,2,lexical,6,sansforgetica,vegitorken,non-word,Probably non-word,1.0,,,2910,44,very difficult to read,04-04-2019 22:31
330,330,1.0,288.0,True,Non-designer,2,lexical,7,sansforgetica,shound,non-word,Probably non-word,1.0,,,3896,44,very difficult to read,04-04-2019 22:31
331,331,1.0,288.0,True,Non-designer,2,lexical,8,sansforgetica,water,word,Sure word,1.0,,,2072,44,very difficult to read,04-04-2019 22:31
332,332,1.0,288.0,True,Non-designer,2,lexical,9,sansforgetica,learning,word,Sure word,1.0,,,1844,44,very difficult to read,04-04-2019 22:31
333,333,1.0,288.0,True,Non-designer,2,lexical,10,sansforgetica,seemed,word,Sure word,1.0,,,2494,44,very difficult to read,04-04-2019 22:31
334,334,1.0,288.0,True,Non-designer,2,lexical,11,sansforgetica,thirty,word,Sure word,1.0,,,3254,44,very difficult to read,04-04-2019 22:31
335,335,1.0,288.0,True,Non-designer,2,lexical,12,sansforgetica,trads,non-word,Probably word,0.0,,,4908,44,very difficult to read,04-04-2019 22:31
336,336,1.0,288.0,True,Non-designer,2,lexical,13,sansforgetica,leading,word,Sure word,1.0,,,2053,44,very difficult to read,04-04-2019 22:31
337,337,1.0,288.0,True,Non-designer,2,lexical,14,sansforgetica,increase,word,Sure word,1.0,,,2147,44,very difficult to read,04-04-2019 22:31
338,338,1.0,288.0,True,Non-designer,2,lexical,15,sansforgetica,statement,word,Sure word,1.0,,,1977,44,very difficult to read,04-04-2019 22:31
339,339,1.0,288.0,True,Non-designer,2,lexical,16,sansforgetica,achieved,word,Sure word,1.0,,,2225,44,very difficult to read,04-04-2019 22:31
340,340,1.0,288.0,True,Non-designer,2,lexical,17,sansforgetica,papid,non-word,Probably word,0.0,,,4402,44,very difficult to read,04-04-2019 22:31
341,341,1.0,288.0,True,Non-designer,2,lexical,18,sansforgetica,tothout,non-word,Sure non-word,1.0,,,4220,44,very difficult to read,04-04-2019 22:31
342,342,1.0,288.0,True,Non-designer,2,lexical,19,sansforgetica,service,word,Sure word,1.0,,,2259,44,very difficult to read,04-04-2019 22:31
343,343,1.0,288.0,True,Non-designer,2,lexical,20,sansforgetica,government,word,Sure word,1.0,,,2049,44,very difficult to read,04-04-2019 22:31
344,344,1.0,288.0,True,Non-designer,2,recognition,1,sansforgetica,weitair,non-word,Sure not seen,1.0,not seen,weises,3572,44,very difficult to read,04-04-2019 22:31
345,345,1.0,288.0,True,Non-designer,2,recognition,2,sansforgetica,reasonatic,non-word,Sure seen,1.0,seen,reasonatic,2488,44,very difficult to read,04-04-2019 22:31
346,346,1.0,288.0,True,Non-designer,2,recognition,3,sansforgetica,controyed,non-word,Sure not seen,1.0,not seen,contrimenty,3423,44,very difficult to read,04-04-2019 22:31
347,347,1.0,288.0,True,Non-designer,2,recognition,4,sansforgetica,ultomobile,non-word,Sure not seen,1.0,not seen,utteral,2798,44,very difficult to read,04-04-2019 22:31
348,348,1.0,288.0,True,Non-designer,2,recognition,5,sansforgetica,gradually,word,Probably not seen,1.0,not seen,government,3409,44,very difficult to read,04-04-2019 22:31
349,349,1.0,288.0,True,Non-designer,2,recognition,6,sansforgetica,statement,word,Sure seen,1.0,seen,statement,2125,44,very difficult to read,04-04-2019 22:31
350,350,1.0,288.0,True,Non-designer,2,recognition,7,sansforgetica,least,word,Probably seen,0.0,not seen,learning,2996,44,very difficult to read,04-04-2019 22:31
351,351,1.0,288.0,True,Non-designer,2,recognition,8,sansforgetica,wealth,word,Probably seen,0.0,not seen,water,2306,44,very difficult to read,04-04-2019 22:31
352,352,1.0,288.0,True,Non-designer,2,recognition,9,sansforgetica,cloature,non-word,Sure seen,1.0,seen,cloature,2504,44,very difficult to read,04-04-2019 22:31
353,353,1.0,288.0,True,Non-designer,2,recognition,10,sansforgetica,increase,word,Probably seen,1.0,seen,increase,5320,44,very difficult to read,04-04-2019 22:31
354,354,1.0,288.0,True,Non-designer,2,recognition,11,sansforgetica,seemed,word,Probably seen,1.0,seen,seemed,2710,44,very difficult to read,04-04-2019 22:31
355,355,1.0,288.0,True,Non-designer,2,recognition,12,sansforgetica,shound,non-word,Sure seen,1.0,seen,shound,2582,44,very difficult to read,04-04-2019 22:31
356,356,1.0,288.0,True,Non-designer,2,recognition,13,sansforgetica,service,word,Probably seen,1.0,seen,service,2682,44,very difficult to read,04-04-2019 22:31
357,357,1.0,288.0,True,Non-designer,2,recognition,14,sansforgetica,trads,non-word,Sure seen,1.0,seen,trads,2200,44,very difficult to read,04-04-2019 22:31
358,358,1.0,288.0,True,Non-designer,2,recognition,15,sansforgetica,tounning,non-word,Probably seen,0.0,not seen,tothout,4323,44,very difficult to read,04-04-2019 22:31
359,359,1.0,288.0,True,Non-designer,2,recognition,16,sansforgetica,those,word,Probably not seen,1.0,not seen,thirty,4261,44,very difficult to read,04-04-2019 22:31
360,360,1.0,360.0,True,Letter designer,1,lexical,1,arial,model,word,Sure word,1.0,,,1976,69,difficult to read,04-04-2019 20:58
361,361,1.0,360.0,True,Letter designer,1,lexical,2,arial,having,word,Sure word,1.0,,,1530,69,difficult to read,04-04-2019 20:58
362,362,1.0,360.0,True,Letter designer,1,lexical,3,arial,wonderful,word,Sure word,1.0,,,1653,69,difficult to read,04-04-2019 20:58
363,363,1.0,360.0,True,Letter designer,1,lexical,4,arial,wanted,word,Sure word,1.0,,,1146,69,difficult to read,04-04-2019 20:58
364,364,1.0,360.0,True,Letter designer,1,lexical,5,arial,genscists,non-word,Probably non-word,1.0,,,3183,69,difficult to read,04-04-2019 20:58
365,365,1.0,360.0,True,Letter designer,1,lexical,6,arial,inducial,non-word,Sure word,0.0,,,1943,69,difficult to read,04-04-2019 20:58
366,366,1.0,360.0,True,Letter designer,1,lexical,7,arial,blearate,non-word,Probably word,0.0,,,2599,69,difficult to read,04-04-2019 20:58
367,367,1.0,360.0,True,Letter designer,1,lexical,8,arial,sugoselves,non-word,Probably non-word,1.0,,,3217,69,difficult to read,04-04-2019 20:58
368,368,1.0,360.0,True,Letter designer,1,lexical,9,arial,movements,word,Sure word,1.0,,,1685,69,difficult to read,04-04-2019 20:58
369,369,1.0,360.0,True,Letter designer,1,lexical,10,arial,pericer,non-word,Probably non-word,1.0,,,3227,69,difficult to read,04-04-2019 20:58
370,370,1.0,360.0,True,Letter designer,1,lexical,11,arial,seven,word,Sure word,1.0,,,1438,69,difficult to read,04-04-2019 20:58
371,371,1.0,360.0,True,Letter designer,1,lexical,12,arial,hospital,word,Sure word,1.0,,,1137,69,difficult to read,04-04-2019 20:58
372,372,1.0,360.0,True,Letter designer,1,lexical,13,arial,eleatome,non-word,Probably word,0.0,,,3656,69,difficult to read,04-04-2019 20:58
373,373,1.0,360.0,True,Letter designer,1,lexical,14,arial,mesters,non-word,Probably non-word,1.0,,,3534,69,difficult to read,04-04-2019 20:58
374,374,1.0,360.0,True,Letter designer,1,lexical,15,arial,remangth,non-word,Probably non-word,1.0,,,3782,69,difficult to read,04-04-2019 20:58
375,375,1.0,360.0,True,Letter designer,1,lexical,16,arial,concern,word,Sure word,1.0,,,2511,69,difficult to read,04-04-2019 20:58
376,376,1.0,360.0,True,Letter designer,1,lexical,17,arial,announced,word,Sure word,1.0,,,2695,69,difficult to read,04-04-2019 20:58
377,377,1.0,360.0,True,Letter designer,1,lexical,18,arial,former,word,Sure word,1.0,,,958,69,difficult to read,04-04-2019 20:58
378,378,1.0,360.0,True,Letter designer,1,lexical,19,arial,impording,non-word,Probably non-word,1.0,,,2427,69,difficult to read,04-04-2019 20:58
379,379,1.0,360.0,True,Letter designer,1,lexical,20,arial,nommidated,non-word,Probably non-word,1.0,,,3973,69,difficult to read,04-04-2019 20:58
380,380,1.0,360.0,True,Letter designer,1,recognition,1,arial,gensibility,non-word,Sure not seen,1.0,not seen,genscists,10778,69,difficult to read,04-04-2019 20:58
381,381,1.0,360.0,True,Letter designer,1,recognition,2,arial,nommidated,non-word,Sure seen,1.0,seen,nommidated,3025,69,difficult to read,04-04-2019 20:58
382,382,1.0,360.0,True,Letter designer,1,recognition,3,arial,eleatome,non-word,Sure not seen,0.0,seen,eleatome,2717,69,difficult to read,04-04-2019 20:58
383,383,1.0,360.0,True,Letter designer,1,recognition,4,arial,wanted,word,Sure seen,1.0,seen,wanted,1482,69,difficult to read,04-04-2019 20:58
384,384,1.0,360.0,True,Letter designer,1,recognition,5,arial,announced,word,Sure seen,1.0,seen,announced,2172,69,difficult to read,04-04-2019 20:58
385,385,1.0,360.0,True,Letter designer,1,recognition,6,arial,model,word,Sure seen,1.0,seen,model,1072,69,difficult to read,04-04-2019 20:58
386,386,1.0,360.0,True,Letter designer,1,recognition,7,arial,sunget,non-word,Sure not seen,1.0,not seen,sugoselves,2550,69,difficult to read,04-04-2019 20:58
387,387,1.0,360.0,True,Letter designer,1,recognition,8,arial,hotel,word,Probably not seen,1.0,not seen,hospital,3133,69,difficult to read,04-04-2019 20:58
388,388,1.0,360.0,True,Letter designer,1,recognition,9,arial,condition,word,Probably seen,0.0,not seen,concern,2693,69,difficult to read,04-04-2019 20:58
389,389,1.0,360.0,True,Letter designer,1,recognition,10,arial,blearate,non-word,Sure seen,1.0,seen,blearate,2546,69,difficult to read,04-04-2019 20:58
390,390,1.0,360.0,True,Letter designer,1,recognition,11,arial,moving,word,Sure seen,0.0,not seen,movements,2062,69,difficult to read,04-04-2019 20:58
391,391,1.0,360.0,True,Letter designer,1,recognition,12,arial,former,word,Sure seen,1.0,seen,former,1235,69,difficult to read,04-04-2019 20:58
392,392,1.0,360.0,True,Letter designer,1,recognition,13,arial,impreasive,non-word,Probably not seen,1.0,not seen,impording,2014,69,difficult to read,04-04-2019 20:58
393,393,1.0,360.0,True,Letter designer,1,recognition,14,arial,several,word,Sure not seen,1.0,not seen,seven,1835,69,difficult to read,04-04-2019 20:58
394,394,1.0,360.0,True,Letter designer,1,recognition,15,arial,inducial,non-word,Sure seen,1.0,seen,inducial,1815,69,difficult to read,04-04-2019 20:58
395,395,1.0,360.0,True,Letter designer,1,recognition,16,arial,perietail,non-word,Sure not seen,1.0,not seen,pericer,3946,69,difficult to read,04-04-2019 20:58
396,396,1.0,360.0,True,Letter designer,2,lexical,1,sansforgetica,weight,word,Sure word,1.0,,,4484,59,very difficult to read,04-04-2019 20:58
397,397,1.0,360.0,True,Letter designer,2,lexical,2,sansforgetica,perfectly,word,Sure word,1.0,,,1965,59,very difficult to read,04-04-2019 20:58
398,398,1.0,360.0,True,Letter designer,2,lexical,3,sansforgetica,decial,non-word,Probably non-word,1.0,,,2335,59,very difficult to read,04-04-2019 20:58
399,399,1.0,360.0,True,Letter designer,2,lexical,4,sansforgetica,relatively,word,Sure word,1.0,,,1836,59,very difficult to read,04-04-2019 20:58
400,400,1.0,360.0,True,Letter designer,2,lexical,5,sansforgetica,fingers,word,Sure word,1.0,,,3878,59,very difficult to read,04-04-2019 20:58
401,401,1.0,360.0,True,Letter designer,2,lexical,6,sansforgetica,enreloping,non-word,Probably non-word,1.0,,,3530,59,very difficult to read,04-04-2019 20:58
402,402,1.0,360.0,True,Letter designer,2,lexical,7,sansforgetica,making,word,Sure word,1.0,,,1767,59,very difficult to read,04-04-2019 20:58
403,403,1.0,360.0,True,Letter designer,2,lexical,8,sansforgetica,arror,non-word,Probably non-word,1.0,,,3457,59,very difficult to read,04-04-2019 20:58
404,404,1.0,360.0,True,Letter designer,2,lexical,9,sansforgetica,sprikelf,non-word,Probably non-word,1.0,,,4651,59,very difficult to read,04-04-2019 20:58
405,405,1.0,360.0,True,Letter designer,2,lexical,10,sansforgetica,confersion,non-word,Probably non-word,1.0,,,2236,59,very difficult to read,04-04-2019 20:58
406,406,1.0,360.0,True,Letter designer,2,lexical,11,sansforgetica,glizagely,non-word,Probably non-word,1.0,,,1730,59,very difficult to read,04-04-2019 20:58
407,407,1.0,360.0,True,Letter designer,2,lexical,12,sansforgetica,occurred,word,Sure word,1.0,,,2970,59,very difficult to read,04-04-2019 20:58
408,408,1.0,360.0,True,Letter designer,2,lexical,13,sansforgetica,furnion,non-word,Probably non-word,1.0,,,1981,59,very difficult to read,04-04-2019 20:58
409,409,1.0,360.0,True,Letter designer,2,lexical,14,sansforgetica,creviver,non-word,Probably non-word,1.0,,,3156,59,very difficult to read,04-04-2019 20:58
410,410,1.0,360.0,True,Letter designer,2,lexical,15,sansforgetica,latter,word,Probably word,1.0,,,4450,59,very difficult to read,04-04-2019 20:58
411,411,1.0,360.0,True,Letter designer,2,lexical,16,sansforgetica,difference,word,Sure word,1.0,,,1315,59,very difficult to read,04-04-2019 20:58
412,412,1.0,360.0,True,Letter designer,2,lexical,17,sansforgetica,rivies,non-word,Probably word,0.0,,,2619,59,very difficult to read,04-04-2019 20:58
413,413,1.0,360.0,True,Letter designer,2,lexical,18,sansforgetica,laugh,word,Sure word,1.0,,,1494,59,very difficult to read,04-04-2019 20:58
414,414,1.0,360.0,True,Letter designer,2,lexical,19,sansforgetica,intentarine,non-word,Probably non-word,1.0,,,6554,59,very difficult to read,04-04-2019 20:58
416,416,1.0,360.0,True,Letter designer,2,recognition,1,sansforgetica,studies,word,Sure seen,1.0,seen,studies,1825,59,very difficult to read,04-04-2019 20:58
417,417,1.0,360.0,True,Letter designer,2,recognition,2,sansforgetica,finished,word,Sure seen,0.0,not seen,fingers,2866,59,very difficult to read,04-04-2019 20:58
418,418,1.0,360.0,True,Letter designer,2,recognition,3,sansforgetica,entervished,non-word,Probably not seen,1.0,not seen,enreloping,2172,59,very difficult to read,04-04-2019 20:58
419,419,1.0,360.0,True,Letter designer,2,recognition,4,sansforgetica,creviver,non-word,Sure seen,1.0,seen,creviver,2865,59,very difficult to read,04-04-2019 20:58
420,420,1.0,360.0,True,Letter designer,2,recognition,5,sansforgetica,arting,non-word,Probably not seen,1.0,not seen,arror,1943,59,very difficult to read,04-04-2019 20:58
421,421,1.0,360.0,True,Letter designer,2,recognition,6,sansforgetica,relief,word,Probably not seen,1.0,not seen,relatively,1489,59,very difficult to read,04-04-2019 20:58
422,422,1.0,360.0,True,Letter designer,2,recognition,7,sansforgetica,gnaning,non-word,Probably not seen,1.0,not seen,glizagely,1596,59,very difficult to read,04-04-2019 20:58
423,423,1.0,360.0,True,Letter designer,2,recognition,8,sansforgetica,laugh,word,Sure seen,1.0,seen,laugh,1345,59,very difficult to read,04-04-2019 20:58
424,424,1.0,360.0,True,Letter designer,2,recognition,9,sansforgetica,rivies,non-word,Sure seen,1.0,seen,rivies,1575,59,very difficult to read,04-04-2019 20:58
425,425,1.0,360.0,True,Letter designer,2,recognition,10,sansforgetica,weight,word,Sure seen,1.0,seen,weight,1120,59,very difficult to read,04-04-2019 20:58
426,426,1.0,360.0,True,Letter designer,2,recognition,11,sansforgetica,decial,non-word,Probably seen,1.0,seen,decial,2687,59,very difficult to read,04-04-2019 20:58
427,427,1.0,360.0,True,Letter designer,2,recognition,12,sansforgetica,different,word,Probably not seen,1.0,not seen,difference,2405,59,very difficult to read,04-04-2019 20:58
428,428,1.0,360.0,True,Letter designer,2,recognition,13,sansforgetica,intentarine,non-word,Sure seen,1.0,seen,intentarine,2485,59,very difficult to read,04-04-2019 20:58
429,429,1.0,360.0,True,Letter designer,2,recognition,14,sansforgetica,confusses,non-word,Probably not seen,1.0,not seen,confersion,1913,59,very difficult to read,04-04-2019 20:58
430,430,1.0,360.0,True,Letter designer,2,recognition,15,sansforgetica,performance,word,Sure not seen,1.0,not seen,perfectly,1965,59,very difficult to read,04-04-2019 20:58
431,431,1.0,360.0,True,Letter designer,2,recognition,16,sansforgetica,latter,word,Sure seen,1.0,seen,latter,1705,59,very difficult to read,04-04-2019 20:58
432,432,1.0,432.0,True,Non-designer,1,lexical,1,sansforgetica,previous,word,Sure word,1.0,,,2429,50,difficult to read,04-04-2019 20:30
433,433,1.0,432.0,True,Non-designer,1,lexical,2,sansforgetica,comes,word,Sure word,1.0,,,2146,50,difficult to read,04-04-2019 20:30
434,434,1.0,432.0,True,Non-designer,1,lexical,3,sansforgetica,stage,word,Sure word,1.0,,,1728,50,difficult to read,04-04-2019 20:30
435,435,1.0,432.0,True,Non-designer,1,lexical,4,sansforgetica,legetation,non-word,Probably non-word,1.0,,,2350,50,difficult to read,04-04-2019 20:30
436,436,1.0,432.0,True,Non-designer,1,lexical,5,sansforgetica,parturceful,non-word,Sure non-word,1.0,,,3366,50,difficult to read,04-04-2019 20:30
437,437,1.0,432.0,True,Non-designer,1,lexical,6,sansforgetica,coods,non-word,Sure non-word,1.0,,,2013,50,difficult to read,04-04-2019 20:30
438,438,1.0,432.0,True,Non-designer,1,lexical,7,sansforgetica,unwitituted,non-word,Sure non-word,1.0,,,2605,50,difficult to read,04-04-2019 20:30
439,439,1.0,432.0,True,Non-designer,1,lexical,8,sansforgetica,enemy,word,Sure word,1.0,,,2005,50,difficult to read,04-04-2019 20:30
440,440,1.0,432.0,True,Non-designer,1,lexical,9,sansforgetica,travel,word,Sure word,1.0,,,1516,50,difficult to read,04-04-2019 20:30
441,441,1.0,432.0,True,Non-designer,1,lexical,10,sansforgetica,murching,non-word,Probably non-word,1.0,,,2681,50,difficult to read,04-04-2019 20:30
442,442,1.0,432.0,True,Non-designer,1,lexical,11,sansforgetica,character,word,Sure word,1.0,,,3071,50,difficult to read,04-04-2019 20:30
443,443,1.0,432.0,True,Non-designer,1,lexical,12,sansforgetica,reaction,word,Sure word,1.0,,,1761,50,difficult to read,04-04-2019 20:30
444,444,1.0,432.0,True,Non-designer,1,lexical,13,sansforgetica,memall,non-word,Probably non-word,1.0,,,2538,50,difficult to read,04-04-2019 20:30
445,445,1.0,432.0,True,Non-designer,1,lexical,14,sansforgetica,parmined,non-word,Probably non-word,1.0,,,2137,50,difficult to read,04-04-2019 20:30
446,446,1.0,432.0,True,Non-designer,1,lexical,15,sansforgetica,undulained,non-word,Probably non-word,1.0,,,2604,50,difficult to read,04-04-2019 20:30
447,447,1.0,432.0,True,Non-designer,1,lexical,16,sansforgetica,bedroom,word,Sure word,1.0,,,1872,50,difficult to read,04-04-2019 20:30
448,448,1.0,432.0,True,Non-designer,1,lexical,17,sansforgetica,bodies,word,Sure word,1.0,,,1449,50,difficult to read,04-04-2019 20:30
449,449,1.0,432.0,True,Non-designer,1,lexical,18,sansforgetica,unfortiated,non-word,Probably word,0.0,,,2587,50,difficult to read,04-04-2019 20:30
450,450,1.0,432.0,True,Non-designer,1,lexical,19,sansforgetica,neilion,non-word,Sure non-word,1.0,,,2319,50,difficult to read,04-04-2019 20:30
451,451,1.0,432.0,True,Non-designer,1,lexical,20,sansforgetica,murder,word,Sure word,1.0,,,1833,50,difficult to read,04-04-2019 20:30
452,452,1.0,432.0,True,Non-designer,1,recognition,1,sansforgetica,comes,word,Sure seen,1.0,seen,comes,3587,50,difficult to read,04-04-2019 20:30
453,453,1.0,432.0,True,Non-designer,1,recognition,2,sansforgetica,uniffests,non-word,Sure not seen,1.0,not seen,unfortiated,5066,50,difficult to read,04-04-2019 20:30
454,454,1.0,432.0,True,Non-designer,1,recognition,3,sansforgetica,partnestion,non-word,Probably not seen,1.0,not seen,parmined,3116,50,difficult to read,04-04-2019 20:30
455,455,1.0,432.0,True,Non-designer,1,recognition,4,sansforgetica,reaction,word,Sure seen,1.0,seen,reaction,1925,50,difficult to read,04-04-2019 20:30
456,456,1.0,432.0,True,Non-designer,1,recognition,5,sansforgetica,before,word,Sure seen,0.0,not seen,bedroom,2285,50,difficult to read,04-04-2019 20:30
457,457,1.0,432.0,True,Non-designer,1,recognition,6,sansforgetica,undulained,non-word,Probably seen,1.0,seen,undulained,3206,50,difficult to read,04-04-2019 20:30
458,458,1.0,432.0,True,Non-designer,1,recognition,7,sansforgetica,prices,word,Probably not seen,1.0,not seen,previous,773,50,difficult to read,04-04-2019 20:30
459,459,1.0,432.0,True,Non-designer,1,recognition,8,sansforgetica,memand,non-word,Probably not seen,1.0,not seen,memall,3526,50,difficult to read,04-04-2019 20:30
460,460,1.0,432.0,True,Non-designer,1,recognition,9,sansforgetica,energy,word,Probably seen,0.0,not seen,enemy,2288,50,difficult to read,04-04-2019 20:30
461,461,1.0,432.0,True,Non-designer,1,recognition,10,sansforgetica,unwitituted,non-word,Sure seen,1.0,seen,unwitituted,2206,50,difficult to read,04-04-2019 20:30
462,462,1.0,432.0,True,Non-designer,1,recognition,11,sansforgetica,mutgresy,non-word,Probably not seen,1.0,not seen,murching,3381,50,difficult to read,04-04-2019 20:30
463,463,1.0,432.0,True,Non-designer,1,recognition,12,sansforgetica,murder,word,Sure seen,1.0,seen,murder,1723,50,difficult to read,04-04-2019 20:30
464,464,1.0,432.0,True,Non-designer,1,recognition,13,sansforgetica,stand,word,Probably not seen,1.0,not seen,stage,2659,50,difficult to read,04-04-2019 20:30
465,465,1.0,432.0,True,Non-designer,1,recognition,14,sansforgetica,travel,word,Sure seen,1.0,seen,travel,2679,50,difficult to read,04-04-2019 20:30
466,466,1.0,432.0,True,Non-designer,1,recognition,15,sansforgetica,legetation,non-word,Sure seen,1.0,seen,legetation,1736,50,difficult to read,04-04-2019 20:30
467,467,1.0,432.0,True,Non-designer,1,recognition,16,sansforgetica,parturceful,non-word,Sure seen,1.0,seen,parturceful,1966,50,difficult to read,04-04-2019 20:30
468,468,1.0,432.0,True,Non-designer,2,lexical,1,arial,forget,word,Sure word,1.0,,,3402,50,very easy to read,04-04-2019 20:30
469,469,1.0,432.0,True,Non-designer,2,lexical,2,arial,stort,non-word,Sure non-word,1.0,,,2401,50,very easy to read,04-04-2019 20:30
470,470,1.0,432.0,True,Non-designer,2,lexical,3,arial,weather,word,Sure word,1.0,,,1728,50,very easy to read,04-04-2019 20:30
471,471,1.0,432.0,True,Non-designer,2,lexical,4,arial,foldness,non-word,Probably non-word,1.0,,,2664,50,very easy to read,04-04-2019 20:30
472,472,1.0,432.0,True,Non-designer,2,lexical,5,arial,married,word,Sure word,1.0,,,1698,50,very easy to read,04-04-2019 20:30
473,473,1.0,432.0,True,Non-designer,2,lexical,6,arial,beliany,non-word,Sure non-word,1.0,,,2657,50,very easy to read,04-04-2019 20:30
474,474,1.0,432.0,True,Non-designer,2,lexical,7,arial,familiar,word,Sure word,1.0,,,1605,50,very easy to read,04-04-2019 20:30
475,475,1.0,432.0,True,Non-designer,2,lexical,8,arial,staff,word,Sure word,1.0,,,1436,50,very easy to read,04-04-2019 20:30
476,476,1.0,432.0,True,Non-designer,2,lexical,9,arial,adjuntives,non-word,Probably non-word,1.0,,,2105,50,very easy to read,04-04-2019 20:30
477,477,1.0,432.0,True,Non-designer,2,lexical,10,arial,hospital,word,Sure word,1.0,,,1461,50,very easy to read,04-04-2019 20:30
478,478,1.0,432.0,True,Non-designer,2,lexical,11,arial,absolutely,word,Sure word,1.0,,,1407,50,very easy to read,04-04-2019 20:30
479,479,1.0,432.0,True,Non-designer,2,lexical,12,arial,distructs,non-word,Probably non-word,1.0,,,2640,50,very easy to read,04-04-2019 20:30
480,480,1.0,432.0,True,Non-designer,2,lexical,13,arial,nobody,word,Sure word,1.0,,,1540,50,very easy to read,04-04-2019 20:30
481,481,1.0,432.0,True,Non-designer,2,lexical,14,arial,coupid,non-word,Probably word,0.0,,,3791,50,very easy to read,04-04-2019 20:30
482,482,1.0,432.0,True,Non-designer,2,lexical,15,arial,crowd,word,Sure word,1.0,,,2964,50,very easy to read,04-04-2019 20:30
483,483,1.0,432.0,True,Non-designer,2,lexical,16,arial,experprower,non-word,Sure non-word,1.0,,,2758,50,very easy to read,04-04-2019 20:30
484,484,1.0,432.0,True,Non-designer,2,lexical,17,arial,telling,word,Sure word,1.0,,,1471,50,very easy to read,04-04-2019 20:30
485,485,1.0,432.0,True,Non-designer,2,lexical,18,arial,invironable,non-word,Probably non-word,1.0,,,2096,50,very easy to read,04-04-2019 20:30
486,486,1.0,432.0,True,Non-designer,2,lexical,19,arial,adolormated,non-word,Probably non-word,1.0,,,2552,50,very easy to read,04-04-2019 20:30
487,487,1.0,432.0,True,Non-designer,2,lexical,20,arial,exprinuous,non-word,Sure non-word,1.0,,,2434,50,very easy to read,04-04-2019 20:30
488,488,1.0,432.0,True,Non-designer,2,recognition,1,arial,forget,word,Sure seen,1.0,seen,forget,1934,50,very easy to read,04-04-2019 20:30
489,489,1.0,432.0,True,Non-designer,2,recognition,2,arial,crowd,word,Sure seen,1.0,seen,crowd,1476,50,very easy to read,04-04-2019 20:30
490,490,1.0,432.0,True,Non-designer,2,recognition,3,arial,folend,non-word,Probably seen,0.0,not seen,foldness,2540,50,very easy to read,04-04-2019 20:30
491,491,1.0,432.0,True,Non-designer,2,recognition,4,arial,accepted,word,Sure not seen,1.0,not seen,absolutely,2176,50,very easy to read,04-04-2019 20:30
492,492,1.0,432.0,True,Non-designer,2,recognition,5,arial,nobody,word,Sure seen,1.0,seen,nobody,1777,50,very easy to read,04-04-2019 20:30
493,493,1.0,432.0,True,Non-designer,2,recognition,6,arial,adjuntives,non-word,Sure seen,1.0,seen,adjuntives,1794,50,very easy to read,04-04-2019 20:30
494,494,1.0,432.0,True,Non-designer,2,recognition,7,arial,extremics,non-word,Probably not seen,1.0,not seen,exprinuous,2457,50,very easy to read,04-04-2019 20:30
495,495,1.0,432.0,True,Non-designer,2,recognition,8,arial,telling,word,Sure seen,1.0,seen,telling,1641,50,very easy to read,04-04-2019 20:30
496,496,1.0,432.0,True,Non-designer,2,recognition,9,arial,families,word,Probably seen,0.0,not seen,familiar,2625,50,very easy to read,04-04-2019 20:30
497,497,1.0,432.0,True,Non-designer,2,recognition,10,arial,stort,non-word,Probably not seen,0.0,seen,stort,2722,50,very easy to read,04-04-2019 20:30
498,498,1.0,432.0,True,Non-designer,2,recognition,11,arial,invironable,non-word,Sure seen,1.0,seen,invironable,2099,50,very easy to read,04-04-2019 20:30
499,499,1.0,432.0,True,Non-designer,2,recognition,12,arial,coupid,non-word,Sure seen,1.0,seen,coupid,1960,50,very easy to read,04-04-2019 20:30
500,500,1.0,432.0,True,Non-designer,2,recognition,13,arial,hotel,word,Sure not seen,1.0,not seen,hospital,1948,50,very easy to read,04-04-2019 20:30
501,501,1.0,432.0,True,Non-designer,2,recognition,14,arial,beliets,non-word,Probably not seen,1.0,not seen,beliany,1843,50,very easy to read,04-04-2019 20:30
502,502,1.0,432.0,True,Non-designer,2,recognition,15,arial,advanth,non-word,Sure not seen,1.0,not seen,adolormated,1837,50,very easy to read,04-04-2019 20:30
503,503,1.0,432.0,True,Non-designer,2,recognition,16,arial,massive,word,Probably not seen,1.0,not seen,married,2007,50,very easy to read,04-04-2019 20:30
504,504,1.0,504.0,True,Other designer,1,lexical,1,sansforgetica,store,word,Sure word,1.0,,,2742,25,ok,04-04-2019 19:51
505,505,1.0,504.0,True,Other designer,1,lexical,2,sansforgetica,grawn,non-word,Sure non-word,1.0,,,2824,25,ok,04-04-2019 19:51
506,506,1.0,504.0,True,Other designer,1,lexical,3,sansforgetica,morking,non-word,Sure non-word,1.0,,,2861,25,ok,04-04-2019 19:51
507,507,1.0,504.0,True,Other designer,1,lexical,4,sansforgetica,togethes,non-word,Sure non-word,1.0,,,2603,25,ok,04-04-2019 19:51
508,508,1.0,504.0,True,Other designer,1,lexical,5,sansforgetica,single,word,Sure word,1.0,,,1571,25,ok,04-04-2019 19:51
509,509,1.0,504.0,True,Other designer,1,lexical,6,sansforgetica,busitown,non-word,Sure non-word,1.0,,,2961,25,ok,04-04-2019 19:51
510,510,1.0,504.0,True,Other designer,1,lexical,7,sansforgetica,share,word,Sure word,1.0,,,1659,25,ok,04-04-2019 19:51
511,511,1.0,504.0,True,Other designer,1,lexical,8,sansforgetica,lovessions,non-word,Sure non-word,1.0,,,3020,25,ok,04-04-2019 19:51
512,512,1.0,504.0,True,Other designer,1,lexical,9,sansforgetica,ancient,word,Sure word,1.0,,,1534,25,ok,04-04-2019 19:51
513,513,1.0,504.0,True,Other designer,1,lexical,10,sansforgetica,valowing,non-word,Probably word,0.0,,,2610,25,ok,04-04-2019 19:51
514,514,1.0,504.0,True,Other designer,1,lexical,11,sansforgetica,requinest,non-word,Probably word,0.0,,,3795,25,ok,04-04-2019 19:51
515,515,1.0,504.0,True,Other designer,1,lexical,12,sansforgetica,wants,word,Sure word,1.0,,,1452,25,ok,04-04-2019 19:51
516,516,1.0,504.0,True,Other designer,1,lexical,13,sansforgetica,difference,word,Sure word,1.0,,,1254,25,ok,04-04-2019 19:51
517,517,1.0,504.0,True,Other designer,1,lexical,14,sansforgetica,millars,non-word,Sure non-word,1.0,,,2633,25,ok,04-04-2019 19:51
518,518,1.0,504.0,True,Other designer,1,lexical,15,sansforgetica,master,word,Sure word,1.0,,,1815,25,ok,04-04-2019 19:51
519,519,1.0,504.0,True,Other designer,1,lexical,16,sansforgetica,preakfase,non-word,Probably non-word,1.0,,,5574,25,ok,04-04-2019 19:51
520,520,1.0,504.0,True,Other designer,1,lexical,17,sansforgetica,suggest,word,Sure word,1.0,,,1542,25,ok,04-04-2019 19:51
521,521,1.0,504.0,True,Other designer,1,lexical,18,sansforgetica,stock,word,Sure word,1.0,,,1290,25,ok,04-04-2019 19:51
522,522,1.0,504.0,True,Other designer,1,lexical,19,sansforgetica,disgrestors,non-word,Probably non-word,1.0,,,2828,25,ok,04-04-2019 19:51
523,523,1.0,504.0,True,Other designer,1,lexical,20,sansforgetica,broken,word,Sure word,1.0,,,1291,25,ok,04-04-2019 19:51
524,524,1.0,504.0,True,Other designer,1,recognition,1,sansforgetica,match,word,Sure seen,0.0,not seen,master,2276,25,ok,04-04-2019 19:51
525,525,1.0,504.0,True,Other designer,1,recognition,2,sansforgetica,single,word,Sure seen,1.0,seen,single,1027,25,ok,04-04-2019 19:51
526,526,1.0,504.0,True,Other designer,1,recognition,3,sansforgetica,stories,word,Sure seen,0.0,not seen,store,5250,25,ok,04-04-2019 19:51
527,527,1.0,504.0,True,Other designer,1,recognition,4,sansforgetica,stock,word,Sure seen,1.0,seen,stock,2229,25,ok,04-04-2019 19:51
528,528,1.0,504.0,True,Other designer,1,recognition,5,sansforgetica,rescributed,non-word,Probably not seen,1.0,not seen,requinest,4744,25,ok,04-04-2019 19:51
529,529,1.0,504.0,True,Other designer,1,recognition,6,sansforgetica,sharp,word,Probably seen,0.0,not seen,share,3853,25,ok,04-04-2019 19:51
530,530,1.0,504.0,True,Other designer,1,recognition,7,sansforgetica,broken,word,Probably not seen,0.0,seen,broken,2585,25,ok,04-04-2019 19:51
531,531,1.0,504.0,True,Other designer,1,recognition,8,sansforgetica,suggest,word,Sure seen,1.0,seen,suggest,1726,25,ok,04-04-2019 19:51
532,532,1.0,504.0,True,Other designer,1,recognition,9,sansforgetica,waste,word,Sure seen,0.0,not seen,wants,2764,25,ok,04-04-2019 19:51
533,533,1.0,504.0,True,Other designer,1,recognition,10,sansforgetica,lovessions,non-word,Sure seen,1.0,seen,lovessions,2180,25,ok,04-04-2019 19:51
534,534,1.0,504.0,True,Other designer,1,recognition,11,sansforgetica,morking,non-word,Sure seen,1.0,seen,morking,1686,25,ok,04-04-2019 19:51
535,535,1.0,504.0,True,Other designer,1,recognition,12,sansforgetica,minalry,non-word,Sure not seen,1.0,not seen,millars,3638,25,ok,04-04-2019 19:51
536,536,1.0,504.0,True,Other designer,1,recognition,13,sansforgetica,preance,non-word,Sure not seen,1.0,not seen,preakfase,2025,25,ok,04-04-2019 19:51
537,537,1.0,504.0,True,Other designer,1,recognition,14,sansforgetica,grawn,non-word,Probably seen,1.0,seen,grawn,2054,25,ok,04-04-2019 19:51
538,538,1.0,504.0,True,Other designer,1,recognition,15,sansforgetica,varearing,non-word,Probably not seen,1.0,not seen,valowing,4839,25,ok,04-04-2019 19:51
539,539,1.0,504.0,True,Other designer,1,recognition,16,sansforgetica,togethes,non-word,Sure seen,1.0,seen,togethes,2094,25,ok,04-04-2019 19:51
540,540,1.0,504.0,True,Other designer,2,lexical,1,arial,chair,word,Sure word,1.0,,,3436,31,very easy to read,04-04-2019 19:51
541,541,1.0,504.0,True,Other designer,2,lexical,2,arial,complex,word,Sure word,1.0,,,933,31,very easy to read,04-04-2019 19:51
542,542,1.0,504.0,True,Other designer,2,lexical,3,arial,already,word,Sure word,1.0,,,1491,31,very easy to read,04-04-2019 19:51
543,543,1.0,504.0,True,Other designer,2,lexical,4,arial,uneard,non-word,Probably non-word,1.0,,,4214,31,very easy to read,04-04-2019 19:51
544,544,1.0,504.0,True,Other designer,2,lexical,5,arial,assappead,non-word,Sure non-word,1.0,,,3994,31,very easy to read,04-04-2019 19:51
545,545,1.0,504.0,True,Other designer,2,lexical,6,arial,crepards,non-word,Sure non-word,1.0,,,4398,31,very easy to read,04-04-2019 19:51
546,546,1.0,504.0,True,Other designer,2,lexical,7,arial,stradfules,non-word,Sure non-word,1.0,,,2275,31,very easy to read,04-04-2019 19:51
547,547,1.0,504.0,True,Other designer,2,lexical,8,arial,syster,non-word,Probably non-word,1.0,,,2689,31,very easy to read,04-04-2019 19:51
548,548,1.0,504.0,True,Other designer,2,lexical,9,arial,police,word,Sure word,1.0,,,1531,31,very easy to read,04-04-2019 19:51
549,549,1.0,504.0,True,Other designer,2,lexical,10,arial,companies,word,Sure word,1.0,,,1728,31,very easy to read,04-04-2019 19:51
550,550,1.0,504.0,True,Other designer,2,lexical,11,arial,littor,non-word,Probably non-word,1.0,,,2254,31,very easy to read,04-04-2019 19:51
551,551,1.0,504.0,True,Other designer,2,lexical,12,arial,condamenced,non-word,Probably non-word,1.0,,,3106,31,very easy to read,04-04-2019 19:51
552,552,1.0,504.0,True,Other designer,2,lexical,13,arial,possible,word,Sure word,1.0,,,2657,31,very easy to read,04-04-2019 19:51
553,553,1.0,504.0,True,Other designer,2,lexical,14,arial,spent,word,Sure word,1.0,,,980,31,very easy to read,04-04-2019 19:51
554,554,1.0,504.0,True,Other designer,2,lexical,15,arial,sugmaling,non-word,Sure non-word,1.0,,,5217,31,very easy to read,04-04-2019 19:51
555,555,1.0,504.0,True,Other designer,2,lexical,16,arial,diverented,non-word,Probably non-word,1.0,,,5674,31,very easy to read,04-04-2019 19:51
556,556,1.0,504.0,True,Other designer,2,lexical,17,arial,lowely,non-word,Sure word,0.0,,,2445,31,very easy to read,04-04-2019 19:51
557,557,1.0,504.0,True,Other designer,2,lexical,18,arial,badly,word,Sure word,1.0,,,1058,31,very easy to read,04-04-2019 19:51
558,558,1.0,504.0,True,Other designer,2,lexical,19,arial,legal,word,Sure word,1.0,,,843,31,very easy to read,04-04-2019 19:51
559,559,1.0,504.0,True,Other designer,2,lexical,20,arial,directly,word,Sure word,1.0,,,929,31,very easy to read,04-04-2019 19:51
560,560,1.0,504.0,True,Other designer,2,recognition,1,arial,luccerent,non-word,Sure not seen,1.0,not seen,lowely,3529,31,very easy to read,04-04-2019 19:51
561,561,1.0,504.0,True,Other designer,2,recognition,2,arial,possible,word,Probably not seen,0.0,seen,possible,2575,31,very easy to read,04-04-2019 19:51
562,562,1.0,504.0,True,Other designer,2,recognition,3,arial,syster,non-word,Sure seen,1.0,seen,syster,2263,31,very easy to read,04-04-2019 19:51
563,563,1.0,504.0,True,Other designer,2,recognition,4,arial,asserworly,non-word,Sure seen,0.0,not seen,assappead,2707,31,very easy to read,04-04-2019 19:51
564,564,1.0,504.0,True,Other designer,2,recognition,5,arial,divitive,non-word,Sure seen,0.0,not seen,diverented,3159,31,very easy to read,04-04-2019 19:51
565,565,1.0,504.0,True,Other designer,2,recognition,6,arial,littor,non-word,Probably not seen,0.0,seen,littor,3006,31,very easy to read,04-04-2019 19:51
566,566,1.0,504.0,True,Other designer,2,recognition,7,arial,sugmaling,non-word,Probably not seen,0.0,seen,sugmaling,3067,31,very easy to read,04-04-2019 19:51
567,567,1.0,504.0,True,Other designer,2,recognition,8,arial,spirit,word,Sure not seen,1.0,not seen,spent,3776,31,very easy to read,04-04-2019 19:51
568,568,1.0,504.0,True,Other designer,2,recognition,9,arial,cresser,non-word,Sure not seen,1.0,not seen,crepards,1633,31,very easy to read,04-04-2019 19:51
569,569,1.0,504.0,True,Other designer,2,recognition,10,arial,badly,word,Sure seen,1.0,seen,badly,1637,31,very easy to read,04-04-2019 19:51
570,570,1.0,504.0,True,Other designer,2,recognition,11,arial,company,word,Sure seen,0.0,not seen,companies,1004,31,very easy to read,04-04-2019 19:51
571,571,1.0,504.0,True,Other designer,2,recognition,12,arial,condamenced,non-word,Sure seen,1.0,seen,condamenced,3466,31,very easy to read,04-04-2019 19:51
572,572,1.0,504.0,True,Other designer,2,recognition,13,arial,already,word,Sure seen,1.0,seen,already,1469,31,very easy to read,04-04-2019 19:51
573,573,1.0,504.0,True,Other designer,2,recognition,14,arial,director,word,Sure not seen,1.0,not seen,directly,2263,31,very easy to read,04-04-2019 19:51
574,574,1.0,504.0,True,Other designer,2,recognition,15,arial,length,word,Sure not seen,1.0,not seen,legal,1895,31,very easy to read,04-04-2019 19:51
575,575,1.0,504.0,True,Other designer,2,recognition,16,arial,complex,word,Sure seen,1.0,seen,complex,2147,31,very easy to read,04-04-2019 19:51
576,576,1.0,576.0,True,Typographer,1,lexical,1,sansforgetica,offered,word,Sure word,1.0,,,2713,41,ok,04-04-2019 19:00
577,577,1.0,576.0,True,Typographer,1,lexical,2,sansforgetica,mircract,non-word,Probably non-word,1.0,,,2708,41,ok,04-04-2019 19:00
578,578,1.0,576.0,True,Typographer,1,lexical,3,sansforgetica,primals,non-word,Probably word,0.0,,,2651,41,ok,04-04-2019 19:00
579,579,1.0,576.0,True,Typographer,1,lexical,4,sansforgetica,happose,non-word,Sure non-word,1.0,,,2039,41,ok,04-04-2019 19:00
580,580,1.0,576.0,True,Typographer,1,lexical,5,sansforgetica,gereed,non-word,Sure non-word,1.0,,,2847,41,ok,04-04-2019 19:00
581,581,1.0,576.0,True,Typographer,1,lexical,6,sansforgetica,sharp,word,Sure word,1.0,,,1744,41,ok,04-04-2019 19:00
582,582,1.0,576.0,True,Typographer,1,lexical,7,sansforgetica,ordiever,non-word,Sure non-word,1.0,,,2152,41,ok,04-04-2019 19:00
583,583,1.0,576.0,True,Typographer,1,lexical,8,sansforgetica,message,word,Sure word,1.0,,,1582,41,ok,04-04-2019 19:00
584,584,1.0,576.0,True,Typographer,1,lexical,9,sansforgetica,easide,non-word,Sure non-word,1.0,,,3064,41,ok,04-04-2019 19:00
585,585,1.0,576.0,True,Typographer,1,lexical,10,sansforgetica,memated,non-word,Probably non-word,1.0,,,1862,41,ok,04-04-2019 19:00
586,586,1.0,576.0,True,Typographer,1,lexical,11,sansforgetica,running,word,Sure word,1.0,,,1431,41,ok,04-04-2019 19:00
587,587,1.0,576.0,True,Typographer,1,lexical,12,sansforgetica,likelf,non-word,Probably non-word,1.0,,,1661,41,ok,04-04-2019 19:00
588,588,1.0,576.0,True,Typographer,1,lexical,13,sansforgetica,advice,word,Sure word,1.0,,,1509,41,ok,04-04-2019 19:00
589,589,1.0,576.0,True,Typographer,1,lexical,14,sansforgetica,college,word,Sure word,1.0,,,1532,41,ok,04-04-2019 19:00
590,590,1.0,576.0,True,Typographer,1,lexical,15,sansforgetica,exercise,word,Sure word,1.0,,,1456,41,ok,04-04-2019 19:00
591,591,1.0,576.0,True,Typographer,1,lexical,16,sansforgetica,minisity,non-word,Sure non-word,1.0,,,1869,41,ok,04-04-2019 19:00
592,592,1.0,576.0,True,Typographer,1,lexical,17,sansforgetica,gream,non-word,Probably non-word,1.0,,,1801,41,ok,04-04-2019 19:00
593,593,1.0,576.0,True,Typographer,1,lexical,18,sansforgetica,regular,word,Sure word,1.0,,,1393,41,ok,04-04-2019 19:00
594,594,1.0,576.0,True,Typographer,1,lexical,19,sansforgetica,forms,word,Sure word,1.0,,,1538,41,ok,04-04-2019 19:00
595,595,1.0,576.0,True,Typographer,1,lexical,20,sansforgetica,health,word,Sure word,1.0,,,1298,41,ok,04-04-2019 19:00
596,596,1.0,576.0,True,Typographer,1,recognition,1,sansforgetica,memated,non-word,Sure seen,1.0,seen,memated,4355,41,ok,04-04-2019 19:00
597,597,1.0,576.0,True,Typographer,1,recognition,2,sansforgetica,primals,non-word,Sure seen,1.0,seen,primals,1929,41,ok,04-04-2019 19:00
598,598,1.0,576.0,True,Typographer,1,recognition,3,sansforgetica,minned,non-word,Sure not seen,1.0,not seen,minisity,2022,41,ok,04-04-2019 19:00
599,599,1.0,576.0,True,Typographer,1,recognition,4,sansforgetica,office,word,Probably seen,0.0,not seen,offered,2957,41,ok,04-04-2019 19:00
600,600,1.0,576.0,True,Typographer,1,recognition,5,sansforgetica,running,word,Sure seen,1.0,seen,running,1473,41,ok,04-04-2019 19:00
601,601,1.0,576.0,True,Typographer,1,recognition,6,sansforgetica,gighting,non-word,Sure not seen,1.0,not seen,gereed,1783,41,ok,04-04-2019 19:00
602,602,1.0,576.0,True,Typographer,1,recognition,7,sansforgetica,likelf,non-word,Sure seen,1.0,seen,likelf,1846,41,ok,04-04-2019 19:00
603,603,1.0,576.0,True,Typographer,1,recognition,8,sansforgetica,heard,word,Probably not seen,1.0,not seen,health,1961,41,ok,04-04-2019 19:00
604,604,1.0,576.0,True,Typographer,1,recognition,9,sansforgetica,college,word,Sure seen,1.0,seen,college,1456,41,ok,04-04-2019 19:00
605,605,1.0,576.0,True,Typographer,1,recognition,10,sansforgetica,exist,word,Probably not seen,1.0,not seen,exercise,2122,41,ok,04-04-2019 19:00
606,606,1.0,576.0,True,Typographer,1,recognition,11,sansforgetica,methods,word,Probably not seen,1.0,not seen,message,2581,41,ok,04-04-2019 19:00
607,607,1.0,576.0,True,Typographer,1,recognition,12,sansforgetica,eassed,non-word,Sure not seen,1.0,not seen,easide,1799,41,ok,04-04-2019 19:00
608,608,1.0,576.0,True,Typographer,1,recognition,13,sansforgetica,regular,word,Sure seen,1.0,seen,regular,1457,41,ok,04-04-2019 19:00
609,609,1.0,576.0,True,Typographer,1,recognition,14,sansforgetica,ordiever,non-word,Sure seen,1.0,seen,ordiever,2093,41,ok,04-04-2019 19:00
610,610,1.0,576.0,True,Typographer,1,recognition,15,sansforgetica,forms,word,Sure seen,1.0,seen,forms,1633,41,ok,04-04-2019 19:00
611,611,1.0,576.0,True,Typographer,1,recognition,16,sansforgetica,miregiated,non-word,Sure not seen,1.0,not seen,mircract,1616,41,ok,04-04-2019 19:00
612,612,1.0,576.0,True,Typographer,2,lexical,1,arial,mering,non-word,Sure non-word,1.0,,,4331,41,very easy to read,04-04-2019 19:00
613,613,1.0,576.0,True,Typographer,2,lexical,2,arial,doweract,non-word,Probably non-word,1.0,,,2001,41,very easy to read,04-04-2019 19:00
614,614,1.0,576.0,True,Typographer,2,lexical,3,arial,husband,word,Sure word,1.0,,,1337,41,very easy to read,04-04-2019 19:00
615,615,1.0,576.0,True,Typographer,2,lexical,4,arial,speech,word,Sure word,1.0,,,1279,41,very easy to read,04-04-2019 19:00
616,616,1.0,576.0,True,Typographer,2,lexical,5,arial,resightered,non-word,Probably non-word,1.0,,,3246,41,very easy to read,04-04-2019 19:00
617,617,1.0,576.0,True,Typographer,2,lexical,6,arial,legissaries,non-word,Probably non-word,1.0,,,1991,41,very easy to read,04-04-2019 19:00
618,618,1.0,576.0,True,Typographer,2,lexical,7,arial,largely,word,Sure word,1.0,,,1370,41,very easy to read,04-04-2019 19:00
619,619,1.0,576.0,True,Typographer,2,lexical,8,arial,fixed,word,Sure word,1.0,,,1240,41,very easy to read,04-04-2019 19:00
620,620,1.0,576.0,True,Typographer,2,lexical,9,arial,dindow,non-word,Probably non-word,1.0,,,1546,41,very easy to read,04-04-2019 19:00
621,621,1.0,576.0,True,Typographer,2,lexical,10,arial,independent,word,Sure word,1.0,,,1321,41,very easy to read,04-04-2019 19:00
622,622,1.0,576.0,True,Typographer,2,lexical,11,arial,patcher,non-word,Sure word,0.0,,,1598,41,very easy to read,04-04-2019 19:00
623,623,1.0,576.0,True,Typographer,2,lexical,12,arial,anyway,word,Sure word,1.0,,,1626,41,very easy to read,04-04-2019 19:00
624,624,1.0,576.0,True,Typographer,2,lexical,13,arial,wituraman,non-word,Sure non-word,1.0,,,1735,41,very easy to read,04-04-2019 19:00
625,625,1.0,576.0,True,Typographer,2,lexical,14,arial,drankes,non-word,Sure non-word,1.0,,,1705,41,very easy to read,04-04-2019 19:00
626,626,1.0,576.0,True,Typographer,2,lexical,15,arial,court,word,Sure word,1.0,,,1375,41,very easy to read,04-04-2019 19:00
627,627,1.0,576.0,True,Typographer,2,lexical,16,arial,colonel,word,Sure word,1.0,,,1374,41,very easy to read,04-04-2019 19:00
628,628,1.0,576.0,True,Typographer,2,lexical,17,arial,before,word,Sure word,1.0,,,1369,41,very easy to read,04-04-2019 19:00
629,629,1.0,576.0,True,Typographer,2,lexical,18,arial,prought,non-word,Probably non-word,1.0,,,1677,41,very easy to read,04-04-2019 19:00
630,630,1.0,576.0,True,Typographer,2,lexical,19,arial,glass,word,Sure word,1.0,,,1651,41,very easy to read,04-04-2019 19:00
631,631,1.0,576.0,True,Typographer,2,lexical,20,arial,orgument,non-word,Probably non-word,1.0,,,1626,41,very easy to read,04-04-2019 19:00
632,632,1.0,576.0,True,Typographer,2,recognition,1,arial,pearmas,non-word,Sure not seen,1.0,not seen,patcher,1940,41,very easy to read,04-04-2019 19:00
633,633,1.0,576.0,True,Typographer,2,recognition,2,arial,speed,word,Probably seen,0.0,not seen,speech,1983,41,very easy to read,04-04-2019 19:00
634,634,1.0,576.0,True,Typographer,2,recognition,3,arial,resightered,non-word,Sure seen,1.0,seen,resightered,2010,41,very easy to read,04-04-2019 19:00
635,635,1.0,576.0,True,Typographer,2,recognition,4,arial,anywhere,word,Sure not seen,1.0,not seen,anyway,2379,41,very easy to read,04-04-2019 19:00
636,636,1.0,576.0,True,Typographer,2,recognition,5,arial,independent,word,Probably not seen,0.0,seen,independent,1834,41,very easy to read,04-04-2019 19:00
637,637,1.0,576.0,True,Typographer,2,recognition,6,arial,glass,word,Sure seen,1.0,seen,glass,1365,41,very easy to read,04-04-2019 19:00
638,638,1.0,576.0,True,Typographer,2,recognition,7,arial,husband,word,Sure seen,1.0,seen,husband,1295,41,very easy to read,04-04-2019 19:00
639,639,1.0,576.0,True,Typographer,2,recognition,8,arial,prought,non-word,Sure seen,1.0,seen,prought,1408,41,very easy to read,04-04-2019 19:00
640,640,1.0,576.0,True,Typographer,2,recognition,9,arial,docionating,non-word,Sure not seen,1.0,not seen,doweract,1685,41,very easy to read,04-04-2019 19:00
641,641,1.0,576.0,True,Typographer,2,recognition,10,arial,legissaries,non-word,Sure seen,1.0,seen,legissaries,1684,41,very easy to read,04-04-2019 19:00
642,642,1.0,576.0,True,Typographer,2,recognition,11,arial,began,word,Probably not seen,1.0,not seen,before,2937,41,very easy to read,04-04-2019 19:00
643,643,1.0,576.0,True,Typographer,2,recognition,12,arial,orgument,non-word,Sure seen,1.0,seen,orgument,1545,41,very easy to read,04-04-2019 19:00
644,644,1.0,576.0,True,Typographer,2,recognition,13,arial,covered,word,Probably seen,0.0,not seen,court,2775,41,very easy to read,04-04-2019 19:00
645,645,1.0,576.0,True,Typographer,2,recognition,14,arial,merrowed,non-word,Sure seen,0.0,not seen,mering,2234,41,very easy to read,04-04-2019 19:00
646,646,1.0,576.0,True,Typographer,2,recognition,15,arial,dreentic,non-word,Sure not seen,1.0,not seen,drankes,1502,41,very easy to read,04-04-2019 19:00
647,647,1.0,576.0,True,Typographer,2,recognition,16,arial,fixed,word,Sure seen,1.0,seen,fixed,1619,41,very easy to read,04-04-2019 19:00
648,648,1.0,648.0,True,Typographer,1,lexical,1,sansforgetica,bedroom,word,Sure word,1.0,,,1702,42,difficult to read,04-04-2019 18:34
649,649,1.0,648.0,True,Typographer,1,lexical,2,sansforgetica,terrible,word,Sure word,1.0,,,1292,42,difficult to read,04-04-2019 18:34
650,650,1.0,648.0,True,Typographer,1,lexical,3,sansforgetica,physical,word,Sure word,1.0,,,930,42,difficult to read,04-04-2019 18:34
651,651,1.0,648.0,True,Typographer,1,lexical,4,sansforgetica,soldiers,word,Sure word,1.0,,,1640,42,difficult to read,04-04-2019 18:34
652,652,1.0,648.0,True,Typographer,1,lexical,5,sansforgetica,otherwise,word,Sure word,1.0,,,1166,42,difficult to read,04-04-2019 18:34
653,653,1.0,648.0,True,Typographer,1,lexical,6,sansforgetica,starge,non-word,Sure non-word,1.0,,,2294,42,difficult to read,04-04-2019 18:34
654,654,1.0,648.0,True,Typographer,1,lexical,7,sansforgetica,headent,non-word,Sure non-word,1.0,,,2688,42,difficult to read,04-04-2019 18:34
655,655,1.0,648.0,True,Typographer,1,lexical,8,sansforgetica,heavily,word,Sure word,1.0,,,1788,42,difficult to read,04-04-2019 18:34
656,656,1.0,648.0,True,Typographer,1,lexical,9,sansforgetica,applictable,non-word,Sure non-word,1.0,,,2208,42,difficult to read,04-04-2019 18:34
657,657,1.0,648.0,True,Typographer,1,lexical,10,sansforgetica,extra,word,Sure word,1.0,,,1418,42,difficult to read,04-04-2019 18:34
658,658,1.0,648.0,True,Typographer,1,lexical,11,sansforgetica,guite,non-word,Sure non-word,1.0,,,1640,42,difficult to read,04-04-2019 18:34
659,659,1.0,648.0,True,Typographer,1,lexical,12,sansforgetica,natimerable,non-word,Sure non-word,1.0,,,1860,42,difficult to read,04-04-2019 18:34
660,660,1.0,648.0,True,Typographer,1,lexical,13,sansforgetica,whing,non-word,Sure non-word,1.0,,,1275,42,difficult to read,04-04-2019 18:34
661,661,1.0,648.0,True,Typographer,1,lexical,14,sansforgetica,glayed,non-word,Sure non-word,1.0,,,978,42,difficult to read,04-04-2019 18:34
662,662,1.0,648.0,True,Typographer,1,lexical,15,sansforgetica,involved,word,Sure word,1.0,,,1497,42,difficult to read,04-04-2019 18:34
663,663,1.0,648.0,True,Typographer,1,lexical,16,sansforgetica,wanted,word,Sure word,1.0,,,851,42,difficult to read,04-04-2019 18:34
664,664,1.0,648.0,True,Typographer,1,lexical,17,sansforgetica,accident,word,Sure word,1.0,,,805,42,difficult to read,04-04-2019 18:34
665,665,1.0,648.0,True,Typographer,1,lexical,18,sansforgetica,discinuing,non-word,Sure non-word,1.0,,,2317,42,difficult to read,04-04-2019 18:34
666,666,1.0,648.0,True,Typographer,1,lexical,19,sansforgetica,anstage,non-word,Sure non-word,1.0,,,1142,42,difficult to read,04-04-2019 18:34
667,667,1.0,648.0,True,Typographer,1,lexical,20,sansforgetica,amerible,non-word,Sure non-word,1.0,,,1324,42,difficult to read,04-04-2019 18:34
668,668,1.0,648.0,True,Typographer,1,recognition,1,sansforgetica,terrible,word,Probably seen,1.0,seen,terrible,4729,42,difficult to read,04-04-2019 18:34
669,669,1.0,648.0,True,Typographer,1,recognition,2,sansforgetica,natimerable,non-word,Probably not seen,0.0,seen,natimerable,3556,42,difficult to read,04-04-2019 18:34
670,670,1.0,648.0,True,Typographer,1,recognition,3,sansforgetica,discinuing,non-word,Probably seen,1.0,seen,discinuing,4367,42,difficult to read,04-04-2019 18:34
671,671,1.0,648.0,True,Typographer,1,recognition,4,sansforgetica,picked,word,Sure not seen,1.0,not seen,physical,1836,42,difficult to read,04-04-2019 18:34
672,672,1.0,648.0,True,Typographer,1,recognition,5,sansforgetica,anstons,non-word,Sure not seen,1.0,not seen,anstage,1356,42,difficult to read,04-04-2019 18:34
673,673,1.0,648.0,True,Typographer,1,recognition,6,sansforgetica,wicking,non-word,Sure not seen,1.0,not seen,whing,1307,42,difficult to read,04-04-2019 18:34
674,674,1.0,648.0,True,Typographer,1,recognition,7,sansforgetica,extremely,word,Probably not seen,1.0,not seen,extra,3326,42,difficult to read,04-04-2019 18:34
675,675,1.0,648.0,True,Typographer,1,recognition,8,sansforgetica,heavily,word,Sure seen,1.0,seen,heavily,1804,42,difficult to read,04-04-2019 18:34
676,676,1.0,648.0,True,Typographer,1,recognition,9,sansforgetica,amerying,non-word,Probably seen,0.0,not seen,amerible,3752,42,difficult to read,04-04-2019 18:34
677,677,1.0,648.0,True,Typographer,1,recognition,10,sansforgetica,otherwise,word,Sure seen,1.0,seen,otherwise,1791,42,difficult to read,04-04-2019 18:34
678,678,1.0,648.0,True,Typographer,1,recognition,11,sansforgetica,wanted,word,Probably seen,1.0,seen,wanted,6942,42,difficult to read,04-04-2019 18:34
679,679,1.0,648.0,True,Typographer,1,recognition,12,sansforgetica,apponstedly,non-word,Sure not seen,1.0,not seen,applictable,1718,42,difficult to read,04-04-2019 18:34
680,680,1.0,648.0,True,Typographer,1,recognition,13,sansforgetica,glayed,non-word,Probably seen,1.0,seen,glayed,3349,42,difficult to read,04-04-2019 18:34
681,681,1.0,648.0,True,Typographer,1,recognition,14,sansforgetica,according,word,Probably not seen,1.0,not seen,accident,2332,42,difficult to read,04-04-2019 18:34
682,682,1.0,648.0,True,Typographer,1,recognition,15,sansforgetica,island,word,Sure not seen,1.0,not seen,involved,1608,42,difficult to read,04-04-2019 18:34
683,683,1.0,648.0,True,Typographer,1,recognition,16,sansforgetica,guite,non-word,Sure seen,1.0,seen,guite,1963,42,difficult to read,04-04-2019 18:34
684,684,1.0,648.0,True,Typographer,2,lexical,1,arial,elanciences,non-word,Sure non-word,1.0,,,4114,50,very easy to read,04-04-2019 18:34
685,685,1.0,648.0,True,Typographer,2,lexical,2,arial,thing,word,Sure word,1.0,,,1694,50,very easy to read,04-04-2019 18:34
686,686,1.0,648.0,True,Typographer,2,lexical,3,arial,weitair,non-word,Sure non-word,1.0,,,1561,50,very easy to read,04-04-2019 18:34
687,687,1.0,648.0,True,Typographer,2,lexical,4,arial,taught,word,Sure word,1.0,,,1908,50,very easy to read,04-04-2019 18:34
688,688,1.0,648.0,True,Typographer,2,lexical,5,arial,essential,word,Sure word,1.0,,,804,50,very easy to read,04-04-2019 18:34
689,689,1.0,648.0,True,Typographer,2,lexical,6,arial,congressary,non-word,Sure non-word,1.0,,,1883,50,very easy to read,04-04-2019 18:34
690,690,1.0,648.0,True,Typographer,2,lexical,7,arial,section,word,Sure word,1.0,,,1293,50,very easy to read,04-04-2019 18:34
691,691,1.0,648.0,True,Typographer,2,lexical,8,arial,repardance,non-word,Sure non-word,1.0,,,1401,50,very easy to read,04-04-2019 18:34
692,692,1.0,648.0,True,Typographer,2,lexical,9,arial,necessary,word,Sure word,1.0,,,1299,50,very easy to read,04-04-2019 18:34
693,693,1.0,648.0,True,Typographer,2,lexical,10,arial,syster,non-word,Sure non-word,1.0,,,1957,50,very easy to read,04-04-2019 18:34
694,694,1.0,648.0,True,Typographer,2,lexical,11,arial,looks,word,Sure word,1.0,,,1340,50,very easy to read,04-04-2019 18:34
695,695,1.0,648.0,True,Typographer,2,lexical,12,arial,greatest,word,Sure word,1.0,,,1166,50,very easy to read,04-04-2019 18:34
696,696,1.0,648.0,True,Typographer,2,lexical,13,arial,succuader,non-word,Sure non-word,1.0,,,1670,50,very easy to read,04-04-2019 18:34
697,697,1.0,648.0,True,Typographer,2,lexical,14,arial,macking,non-word,Sure non-word,1.0,,,1056,50,very easy to read,04-04-2019 18:34
698,698,1.0,648.0,True,Typographer,2,lexical,15,arial,somebody,word,Sure word,1.0,,,1860,50,very easy to read,04-04-2019 18:34
699,699,1.0,648.0,True,Typographer,2,lexical,16,arial,linangently,non-word,Sure non-word,1.0,,,1252,50,very easy to read,04-04-2019 18:34
700,700,1.0,648.0,True,Typographer,2,lexical,17,arial,neilion,non-word,Sure non-word,1.0,,,1097,50,very easy to read,04-04-2019 18:34
701,701,1.0,648.0,True,Typographer,2,lexical,18,arial,empty,word,Sure word,1.0,,,1246,50,very easy to read,04-04-2019 18:34
702,702,1.0,648.0,True,Typographer,2,lexical,19,arial,unione,non-word,Sure non-word,1.0,,,1458,50,very easy to read,04-04-2019 18:34
703,703,1.0,648.0,True,Typographer,2,lexical,20,arial,however,word,Sure word,1.0,,,1222,50,very easy to read,04-04-2019 18:34
704,704,1.0,648.0,True,Typographer,2,recognition,1,arial,linangently,non-word,Probably not seen,0.0,seen,linangently,3271,50,very easy to read,04-04-2019 18:34
705,705,1.0,648.0,True,Typographer,2,recognition,2,arial,loved,word,Sure not seen,1.0,not seen,looks,1930,50,very easy to read,04-04-2019 18:34
