,Study ID,Participant ID,Native,Designer,Test ID,Test type,Trial ID,Font,Sample,Category,Response,Correct,Seen,Foil,Response time,JoM,JoL,Date
0,Pilot,0,yes,Non-designer,1,lexical,1,sansforgetica,neeld,non-word,Sure word,0,,,2744,56,very easy to read,25-03-2019 19:37
1,Pilot,0,yes,Non-designer,1,lexical,2,sansforgetica,inverstand,non-word,Sure word,0,,,841,56,very easy to read,25-03-2019 19:37
2,Pilot,0,yes,Non-designer,1,lexical,3,sansforgetica,sovess,non-word,Sure word,0,,,527,56,very easy to read,25-03-2019 19:37
3,Pilot,0,yes,Non-designer,1,lexical,4,sansforgetica,guilty,word,Sure word,1,,,536,56,very easy to read,25-03-2019 19:37
4,Pilot,0,yes,Non-designer,1,lexical,5,sansforgetica,actions,word,Sure word,1,,,511,56,very easy to read,25-03-2019 19:37
5,Pilot,0,yes,Non-designer,1,lexical,6,sansforgetica,earth,word,Sure word,1,,,481,56,very easy to read,25-03-2019 19:37
6,Pilot,0,yes,Non-designer,1,lexical,7,sansforgetica,partnestion,non-word,Sure word,0,,,504,56,very easy to read,25-03-2019 19:37
7,Pilot,0,yes,Non-designer,1,lexical,8,sansforgetica,surcenters,non-word,Sure word,0,,,512,56,very easy to read,25-03-2019 19:37
8,Pilot,0,yes,Non-designer,1,lexical,9,sansforgetica,status,word,Sure word,1,,,496,56,very easy to read,25-03-2019 19:37
9,Pilot,0,yes,Non-designer,1,lexical,10,sansforgetica,miney,non-word,Sure word,0,,,489,56,very easy to read,25-03-2019 19:37
10,Pilot,0,yes,Non-designer,1,lexical,11,sansforgetica,calculgical,non-word,Sure word,0,,,327,56,very easy to read,25-03-2019 19:37
11,Pilot,0,yes,Non-designer,1,lexical,12,sansforgetica,women,word,Sure word,1,,,554,56,very easy to read,25-03-2019 19:37
12,Pilot,0,yes,Non-designer,1,lexical,13,sansforgetica,parent,word,Sure word,1,,,589,56,very easy to read,25-03-2019 19:37
13,Pilot,0,yes,Non-designer,1,lexical,14,sansforgetica,stock,word,Sure word,1,,,522,56,very easy to read,25-03-2019 19:37
14,Pilot,0,yes,Non-designer,1,lexical,15,sansforgetica,authorities,word,Sure word,1,,,471,56,very easy to read,25-03-2019 19:37
15,Pilot,0,yes,Non-designer,1,lexical,16,sansforgetica,cerving,non-word,Sure word,0,,,520,56,very easy to read,25-03-2019 19:37
16,Pilot,0,yes,Non-designer,1,lexical,17,sansforgetica,enreloping,non-word,Sure word,0,,,1345,56,very easy to read,25-03-2019 19:37
17,Pilot,0,yes,Non-designer,1,lexical,18,sansforgetica,meaning,word,Sure word,1,,,535,56,very easy to read,25-03-2019 19:37
18,Pilot,0,yes,Non-designer,1,lexical,19,sansforgetica,minute,word,Sure word,1,,,463,56,very easy to read,25-03-2019 19:37
19,Pilot,0,yes,Non-designer,1,lexical,20,sansforgetica,sprairen,non-word,Sure word,0,,,378,56,very easy to read,25-03-2019 19:37
20,Pilot,0,yes,Non-designer,1,recognition,1,sansforgetica,easier,word,Sure seen,0,non-seen,earth,3431,56,very easy to read,25-03-2019 19:37
21,Pilot,0,yes,Non-designer,1,recognition,2,sansforgetica,miney,non-word,Sure seen,1,seen,miney,618,56,very easy to read,25-03-2019 19:37
22,Pilot,0,yes,Non-designer,1,recognition,3,sansforgetica,enreloping,non-word,Sure seen,1,seen,enreloping,567,56,very easy to read,25-03-2019 19:37
23,Pilot,0,yes,Non-designer,1,recognition,4,sansforgetica,available,word,Sure seen,0,non-seen,authorities,566,56,very easy to read,25-03-2019 19:37
24,Pilot,0,yes,Non-designer,1,recognition,5,sansforgetica,minute,word,Sure seen,1,seen,minute,536,56,very easy to read,25-03-2019 19:37
25,Pilot,0,yes,Non-designer,1,recognition,6,sansforgetica,active,word,Sure seen,0,non-seen,actions,536,56,very easy to read,25-03-2019 19:37
26,Pilot,0,yes,Non-designer,1,recognition,7,sansforgetica,invironable,non-word,Sure seen,0,non-seen,inverstand,594,56,very easy to read,25-03-2019 19:37
27,Pilot,0,yes,Non-designer,1,recognition,8,sansforgetica,parent,word,Sure seen,1,seen,parent,534,56,very easy to read,25-03-2019 19:37
28,Pilot,0,yes,Non-designer,1,recognition,9,sansforgetica,surcenters,non-word,Sure seen,1,seen,surcenters,561,56,very easy to read,25-03-2019 19:37
29,Pilot,0,yes,Non-designer,1,recognition,10,sansforgetica,means,word,Sure seen,0,non-seen,meaning,527,56,very easy to read,25-03-2019 19:37
30,Pilot,0,yes,Non-designer,1,recognition,11,sansforgetica,sprikelf,non-word,Sure seen,0,non-seen,sprairen,513,56,very easy to read,25-03-2019 19:37
31,Pilot,0,yes,Non-designer,1,recognition,12,sansforgetica,chaminue,non-word,Sure seen,0,non-seen,cerving,527,56,very easy to read,25-03-2019 19:37
32,Pilot,0,yes,Non-designer,1,recognition,13,sansforgetica,status,word,Sure seen,1,seen,status,561,56,very easy to read,25-03-2019 19:37
33,Pilot,0,yes,Non-designer,1,recognition,14,sansforgetica,partnestion,non-word,Sure seen,1,seen,partnestion,567,56,very easy to read,25-03-2019 19:37
34,Pilot,0,yes,Non-designer,1,recognition,15,sansforgetica,guilty,word,Sure seen,1,seen,guilty,553,56,very easy to read,25-03-2019 19:37
35,Pilot,0,yes,Non-designer,1,recognition,16,sansforgetica,sovies,non-word,Sure seen,0,non-seen,sovess,584,56,very easy to read,25-03-2019 19:37
36,Pilot,0,yes,Non-designer,2,lexical,1,inputsans,pattern,word,Sure word,1,,,1902,54,easy to read,25-03-2019 19:37
37,Pilot,0,yes,Non-designer,2,lexical,2,inputsans,vally,non-word,Sure word,0,,,826,54,easy to read,25-03-2019 19:37
38,Pilot,0,yes,Non-designer,2,lexical,3,inputsans,either,word,Sure word,1,,,528,54,easy to read,25-03-2019 19:37
39,Pilot,0,yes,Non-designer,2,lexical,4,inputsans,escape,word,Sure word,1,,,375,54,easy to read,25-03-2019 19:37
40,Pilot,0,yes,Non-designer,2,lexical,5,inputsans,masuld,non-word,Sure word,0,,,383,54,easy to read,25-03-2019 19:37
41,Pilot,0,yes,Non-designer,2,lexical,6,inputsans,physical,word,Sure word,1,,,657,54,easy to read,25-03-2019 19:37
42,Pilot,0,yes,Non-designer,2,lexical,7,inputsans,sountion,non-word,Sure word,0,,,603,54,easy to read,25-03-2019 19:37
43,Pilot,0,yes,Non-designer,2,lexical,8,inputsans,start,word,Sure word,1,,,501,54,easy to read,25-03-2019 19:37
44,Pilot,0,yes,Non-designer,2,lexical,9,inputsans,cittes,non-word,Sure word,0,,,511,54,easy to read,25-03-2019 19:37
45,Pilot,0,yes,Non-designer,2,lexical,10,inputsans,griends,non-word,Sure word,0,,,546,54,easy to read,25-03-2019 19:37
46,Pilot,0,yes,Non-designer,2,lexical,11,inputsans,adult,word,Sure word,1,,,711,54,easy to read,25-03-2019 19:37
47,Pilot,0,yes,Non-designer,2,lexical,12,inputsans,gatted,non-word,Sure word,0,,,849,54,easy to read,25-03-2019 19:37
48,Pilot,0,yes,Non-designer,2,lexical,13,inputsans,arould,non-word,Sure word,0,,,600,54,easy to read,25-03-2019 19:37
49,Pilot,0,yes,Non-designer,2,lexical,14,inputsans,appropriate,word,Sure word,1,,,831,54,easy to read,25-03-2019 19:37
50,Pilot,0,yes,Non-designer,2,lexical,15,inputsans,benefit,word,Sure word,1,,,696,54,easy to read,25-03-2019 19:37
51,Pilot,0,yes,Non-designer,2,lexical,16,inputsans,medical,word,Sure word,1,,,609,54,easy to read,25-03-2019 19:37
52,Pilot,0,yes,Non-designer,2,lexical,17,inputsans,pritialing,non-word,Sure word,0,,,592,54,easy to read,25-03-2019 19:37
53,Pilot,0,yes,Non-designer,2,lexical,18,inputsans,treselved,non-word,Sure word,0,,,640,54,easy to read,25-03-2019 19:37
54,Pilot,0,yes,Non-designer,2,lexical,19,inputsans,uneard,non-word,Sure word,0,,,607,54,easy to read,25-03-2019 19:37
55,Pilot,0,yes,Non-designer,2,lexical,20,inputsans,always,word,Sure word,1,,,617,54,easy to read,25-03-2019 19:37
56,Pilot,0,yes,Non-designer,2,recognition,1,inputsans,cittes,non-word,Sure seen,1,seen,cittes,2631,54,easy to read,25-03-2019 19:37
57,Pilot,0,yes,Non-designer,2,recognition,2,inputsans,statement,word,Sure seen,0,non-seen,start,591,54,easy to read,25-03-2019 19:37
58,Pilot,0,yes,Non-designer,2,recognition,3,inputsans,matisiber,non-word,Sure seen,0,non-seen,masuld,528,54,easy to read,25-03-2019 19:37
59,Pilot,0,yes,Non-designer,2,recognition,4,inputsans,besides,word,Sure seen,0,non-seen,benefit,505,54,easy to read,25-03-2019 19:37
60,Pilot,0,yes,Non-designer,2,recognition,5,inputsans,especially,word,Sure seen,0,non-seen,escape,583,54,easy to read,25-03-2019 19:37
61,Pilot,0,yes,Non-designer,2,recognition,6,inputsans,sooked,non-word,Sure seen,0,non-seen,sountion,511,54,easy to read,25-03-2019 19:37
62,Pilot,0,yes,Non-designer,2,recognition,7,inputsans,arould,non-word,Sure seen,1,seen,arould,449,54,easy to read,25-03-2019 19:37
63,Pilot,0,yes,Non-designer,2,recognition,8,inputsans,proception,non-word,Sure seen,0,non-seen,pritialing,432,54,easy to read,25-03-2019 19:37
64,Pilot,0,yes,Non-designer,2,recognition,9,inputsans,trevation,non-word,Sure seen,0,non-seen,treselved,433,54,easy to read,25-03-2019 19:37
65,Pilot,0,yes,Non-designer,2,recognition,10,inputsans,appropriate,word,Sure seen,1,seen,appropriate,448,54,easy to read,25-03-2019 19:37
66,Pilot,0,yes,Non-designer,2,recognition,11,inputsans,adult,word,Sure seen,1,seen,adult,495,54,easy to read,25-03-2019 19:37
67,Pilot,0,yes,Non-designer,2,recognition,12,inputsans,physical,word,Sure seen,1,seen,physical,440,54,easy to read,25-03-2019 19:37
68,Pilot,0,yes,Non-designer,2,recognition,13,inputsans,uneard,non-word,Sure seen,1,seen,uneard,321,54,easy to read,25-03-2019 19:37
69,Pilot,0,yes,Non-designer,2,recognition,14,inputsans,pattern,word,Sure seen,1,seen,pattern,575,54,easy to read,25-03-2019 19:37
70,Pilot,0,yes,Non-designer,2,recognition,15,inputsans,vally,non-word,Sure seen,1,seen,vally,681,54,easy to read,25-03-2019 19:37
71,Pilot,0,yes,Non-designer,2,recognition,16,inputsans,meeting,word,Sure seen,0,non-seen,medical,511,54,easy to read,25-03-2019 19:37
72,Pilot,1,yes,Non-designer,1,lexical,1,sansforgetica,common,word,Sure word,1,,,2752,40,easy to read,19-03-2019 16:35
73,Pilot,1,yes,Non-designer,1,lexical,2,sansforgetica,carefully,word,Sure word,1,,,1810,40,easy to read,19-03-2019 16:35
74,Pilot,1,yes,Non-designer,1,lexical,3,sansforgetica,pieces,word,Sure word,1,,,1541,40,easy to read,19-03-2019 16:35
75,Pilot,1,yes,Non-designer,1,lexical,4,sansforgetica,sprairen,non-word,Probably non-word,0.6666666666666667,,,4110,40,easy to read,19-03-2019 16:35
76,Pilot,1,yes,Non-designer,1,lexical,5,sansforgetica,protbation,non-word,Probably non-word,0.6666666666666667,,,3288,40,easy to read,19-03-2019 16:35
77,Pilot,1,yes,Non-designer,1,lexical,6,sansforgetica,exactly,word,Sure word,1,,,1997,40,easy to read,19-03-2019 16:35
78,Pilot,1,yes,Non-designer,1,lexical,7,sansforgetica,expedintly,non-word,Probably word,0.33333333333333337,,,3771,40,easy to read,19-03-2019 16:35
79,Pilot,1,yes,Non-designer,1,lexical,8,sansforgetica,sategontly,non-word,Probably non-word,0.6666666666666667,,,4236,40,easy to read,19-03-2019 16:35
80,Pilot,1,yes,Non-designer,1,lexical,9,sansforgetica,concern,word,Sure word,1,,,1757,40,easy to read,19-03-2019 16:35
81,Pilot,1,yes,Non-designer,1,lexical,10,sansforgetica,capable,word,Sure word,1,,,1210,40,easy to read,19-03-2019 16:35
82,Pilot,1,yes,Non-designer,1,lexical,11,sansforgetica,morence,non-word,Probably word,0.33333333333333337,,,2380,40,easy to read,19-03-2019 16:35
83,Pilot,1,yes,Non-designer,1,lexical,12,sansforgetica,undouring,non-word,Sure non-word,1,,,4086,40,easy to read,19-03-2019 16:35
84,Pilot,1,yes,Non-designer,1,lexical,13,sansforgetica,requinest,non-word,Sure non-word,1,,,1711,40,easy to read,19-03-2019 16:35
85,Pilot,1,yes,Non-designer,1,lexical,14,sansforgetica,argument,word,Sure word,1,,,1902,40,easy to read,19-03-2019 16:35
86,Pilot,1,yes,Non-designer,1,lexical,15,sansforgetica,fight,word,Sure word,1,,,1306,40,easy to read,19-03-2019 16:35
87,Pilot,1,yes,Non-designer,1,lexical,16,sansforgetica,equipmely,non-word,Probably non-word,0.6666666666666667,,,5394,40,easy to read,19-03-2019 16:35
88,Pilot,1,yes,Non-designer,1,lexical,17,sansforgetica,phone,word,Sure word,1,,,2186,40,easy to read,19-03-2019 16:35
89,Pilot,1,yes,Non-designer,1,lexical,18,sansforgetica,learn,word,Sure word,1,,,1196,40,easy to read,19-03-2019 16:35
90,Pilot,1,yes,Non-designer,1,lexical,19,sansforgetica,perietail,non-word,Probably word,0.33333333333333337,,,3147,40,easy to read,19-03-2019 16:35
91,Pilot,1,yes,Non-designer,1,lexical,20,sansforgetica,compereness,non-word,Probably word,0.33333333333333337,,,2871,40,easy to read,19-03-2019 16:35
92,Pilot,1,yes,Non-designer,1,recognition,1,sansforgetica,requinest,non-word,Sure seen,1,seen,requinest,2476,40,easy to read,19-03-2019 16:35
93,Pilot,1,yes,Non-designer,1,recognition,2,sansforgetica,undublisted,non-word,Sure not seen,1,non-seen,undouring,2857,40,easy to read,19-03-2019 16:35
94,Pilot,1,yes,Non-designer,1,recognition,3,sansforgetica,sategontly,non-word,Sure seen,1,seen,sategontly,2341,40,easy to read,19-03-2019 16:35
95,Pilot,1,yes,Non-designer,1,recognition,4,sansforgetica,equipmely,non-word,Sure seen,1,seen,equipmely,1552,40,easy to read,19-03-2019 16:35
96,Pilot,1,yes,Non-designer,1,recognition,5,sansforgetica,experaties,non-word,Sure not seen,1,non-seen,expedintly,2583,40,easy to read,19-03-2019 16:35
97,Pilot,1,yes,Non-designer,1,recognition,6,sansforgetica,concern,word,Sure seen,1,seen,concern,1606,40,easy to read,19-03-2019 16:35
98,Pilot,1,yes,Non-designer,1,recognition,7,sansforgetica,capable,word,Sure seen,1,seen,capable,1170,40,easy to read,19-03-2019 16:35
99,Pilot,1,yes,Non-designer,1,recognition,8,sansforgetica,fight,word,Sure seen,1,seen,fight,1235,40,easy to read,19-03-2019 16:35
100,Pilot,1,yes,Non-designer,1,recognition,9,sansforgetica,carefully,word,Sure seen,1,seen,carefully,1202,40,easy to read,19-03-2019 16:35
101,Pilot,1,yes,Non-designer,1,recognition,10,sansforgetica,morence,non-word,Sure seen,1,seen,morence,1549,40,easy to read,19-03-2019 16:35
102,Pilot,1,yes,Non-designer,1,recognition,11,sansforgetica,sprikelf,non-word,Probably not seen,0.6666666666666667,non-seen,sprairen,2861,40,easy to read,19-03-2019 16:35
103,Pilot,1,yes,Non-designer,1,recognition,12,sansforgetica,example,word,Sure seen,0,non-seen,exactly,1556,40,easy to read,19-03-2019 16:35
104,Pilot,1,yes,Non-designer,1,recognition,13,sansforgetica,physical,word,Sure not seen,1,non-seen,phone,2194,40,easy to read,19-03-2019 16:35
105,Pilot,1,yes,Non-designer,1,recognition,14,sansforgetica,placed,word,Sure not seen,1,non-seen,pieces,1666,40,easy to read,19-03-2019 16:35
106,Pilot,1,yes,Non-designer,1,recognition,15,sansforgetica,protercial,non-word,Probably seen,0.33333333333333337,non-seen,protbation,2617,40,easy to read,19-03-2019 16:35
107,Pilot,1,yes,Non-designer,1,recognition,16,sansforgetica,learning,word,Probably seen,0.33333333333333337,non-seen,learn,2014,40,easy to read,19-03-2019 16:35
108,Pilot,1,yes,Non-designer,2,lexical,1,inputsans,battle,word,Sure word,1,,,2910,42,very easy to read,19-03-2019 16:35
109,Pilot,1,yes,Non-designer,2,lexical,2,inputsans,possecapped,non-word,Sure non-word,1,,,2848,42,very easy to read,19-03-2019 16:35
110,Pilot,1,yes,Non-designer,2,lexical,3,inputsans,steet,non-word,Sure non-word,1,,,2065,42,very easy to read,19-03-2019 16:35
111,Pilot,1,yes,Non-designer,2,lexical,4,inputsans,stood,word,Sure word,1,,,2040,42,very easy to read,19-03-2019 16:35
112,Pilot,1,yes,Non-designer,2,lexical,5,inputsans,hunwary,non-word,Probably non-word,0.6666666666666667,,,2168,42,very easy to read,19-03-2019 16:35
113,Pilot,1,yes,Non-designer,2,lexical,6,inputsans,contrimenty,non-word,Probably word,0.33333333333333337,,,3257,42,very easy to read,19-03-2019 16:35
114,Pilot,1,yes,Non-designer,2,lexical,7,inputsans,explaign,non-word,Sure non-word,1,,,1948,42,very easy to read,19-03-2019 16:35
115,Pilot,1,yes,Non-designer,2,lexical,8,inputsans,peoply,non-word,Sure non-word,1,,,1816,42,very easy to read,19-03-2019 16:35
116,Pilot,1,yes,Non-designer,2,lexical,9,inputsans,familiar,word,Sure word,1,,,1978,42,very easy to read,19-03-2019 16:35
117,Pilot,1,yes,Non-designer,2,lexical,10,inputsans,problems,word,Sure word,1,,,1514,42,very easy to read,19-03-2019 16:35
118,Pilot,1,yes,Non-designer,2,lexical,11,inputsans,successful,word,Sure word,1,,,1330,42,very easy to read,19-03-2019 16:35
119,Pilot,1,yes,Non-designer,2,lexical,12,inputsans,forced,word,Sure word,1,,,1318,42,very easy to read,19-03-2019 16:35
120,Pilot,1,yes,Non-designer,2,lexical,13,inputsans,apportuning,non-word,Sure word,0,,,1832,42,very easy to read,19-03-2019 16:35
121,Pilot,1,yes,Non-designer,2,lexical,14,inputsans,terms,word,Sure word,1,,,1104,42,very easy to read,19-03-2019 16:35
122,Pilot,1,yes,Non-designer,2,lexical,15,inputsans,dollars,word,Sure word,1,,,1317,42,very easy to read,19-03-2019 16:35
123,Pilot,1,yes,Non-designer,2,lexical,16,inputsans,fashing,non-word,Sure word,0,,,4082,42,very easy to read,19-03-2019 16:35
124,Pilot,1,yes,Non-designer,2,lexical,17,inputsans,thick,word,Sure word,1,,,1654,42,very easy to read,19-03-2019 16:35
125,Pilot,1,yes,Non-designer,2,lexical,18,inputsans,limited,word,Sure word,1,,,1153,42,very easy to read,19-03-2019 16:35
126,Pilot,1,yes,Non-designer,2,lexical,19,inputsans,gromish,non-word,Probably non-word,0.6666666666666667,,,1781,42,very easy to read,19-03-2019 16:35
127,Pilot,1,yes,Non-designer,2,lexical,20,inputsans,larms,non-word,Sure non-word,1,,,2338,42,very easy to read,19-03-2019 16:35
128,Pilot,1,yes,Non-designer,2,recognition,1,inputsans,explaign,non-word,Sure not seen,0,seen,explaign,3672,42,very easy to read,19-03-2019 16:35
129,Pilot,1,yes,Non-designer,2,recognition,2,inputsans,limited,word,Sure seen,1,seen,limited,1510,42,very easy to read,19-03-2019 16:35
130,Pilot,1,yes,Non-designer,2,recognition,3,inputsans,larms,non-word,Sure seen,1,seen,larms,1989,42,very easy to read,19-03-2019 16:35
131,Pilot,1,yes,Non-designer,2,recognition,4,inputsans,terrible,word,Sure not seen,1,non-seen,terms,2266,42,very easy to read,19-03-2019 16:35
132,Pilot,1,yes,Non-designer,2,recognition,5,inputsans,successful,word,Sure seen,1,seen,successful,1982,42,very easy to read,19-03-2019 16:35
133,Pilot,1,yes,Non-designer,2,recognition,6,inputsans,faterb,non-word,Sure not seen,1,non-seen,fashing,2009,42,very easy to read,19-03-2019 16:35
134,Pilot,1,yes,Non-designer,2,recognition,7,inputsans,familiar,word,Sure seen,1,seen,familiar,2618,42,very easy to read,19-03-2019 16:35
135,Pilot,1,yes,Non-designer,2,recognition,8,inputsans,doors,word,Sure not seen,1,non-seen,dollars,1726,42,very easy to read,19-03-2019 16:35
136,Pilot,1,yes,Non-designer,2,recognition,9,inputsans,appresses,non-word,Sure not seen,1,non-seen,apportuning,1623,42,very easy to read,19-03-2019 16:35
137,Pilot,1,yes,Non-designer,2,recognition,10,inputsans,process,word,Probably seen,0.33333333333333337,non-seen,problems,3536,42,very easy to read,19-03-2019 16:35
138,Pilot,1,yes,Non-designer,2,recognition,11,inputsans,stood,word,Sure seen,1,seen,stood,1565,42,very easy to read,19-03-2019 16:35
139,Pilot,1,yes,Non-designer,2,recognition,12,inputsans,possecapped,non-word,Sure seen,1,seen,possecapped,2050,42,very easy to read,19-03-2019 16:35
140,Pilot,1,yes,Non-designer,2,recognition,13,inputsans,controyed,non-word,Sure not seen,1,non-seen,contrimenty,1901,42,very easy to read,19-03-2019 16:35
141,Pilot,1,yes,Non-designer,2,recognition,14,inputsans,peoply,non-word,Sure seen,1,seen,peoply,3067,42,very easy to read,19-03-2019 16:35
142,Pilot,1,yes,Non-designer,2,recognition,15,inputsans,stich,non-word,Probably not seen,0.6666666666666667,non-seen,steet,2061,42,very easy to read,19-03-2019 16:35
143,Pilot,1,yes,Non-designer,2,recognition,16,inputsans,foreign,word,Probably not seen,0.6666666666666667,non-seen,forced,2122,42,very easy to read,19-03-2019 16:35
144,Pilot,2,yes,Other designer,1,lexical,1,sansforgetica,unconscents,non-word,Probably non-word,0.6666666666666667,,,5466,63,ok,19-03-2019 16:25
145,Pilot,2,yes,Other designer,1,lexical,2,sansforgetica,living,word,Sure word,1,,,1568,63,ok,19-03-2019 16:25
146,Pilot,2,yes,Other designer,1,lexical,3,sansforgetica,opplanation,non-word,Probably non-word,0.6666666666666667,,,4287,63,ok,19-03-2019 16:25
147,Pilot,2,yes,Other designer,1,lexical,4,sansforgetica,worked,word,Sure word,1,,,1892,63,ok,19-03-2019 16:25
148,Pilot,2,yes,Other designer,1,lexical,5,sansforgetica,without,word,Sure word,1,,,1250,63,ok,19-03-2019 16:25
149,Pilot,2,yes,Other designer,1,lexical,6,sansforgetica,althdren,non-word,Sure non-word,1,,,2927,63,ok,19-03-2019 16:25
150,Pilot,2,yes,Other designer,1,lexical,7,sansforgetica,scievority,non-word,Probably non-word,0.6666666666666667,,,3794,63,ok,19-03-2019 16:25
151,Pilot,2,yes,Other designer,1,lexical,8,sansforgetica,answered,word,Sure word,1,,,1754,63,ok,19-03-2019 16:25
152,Pilot,2,yes,Other designer,1,lexical,9,sansforgetica,speech,word,Sure word,1,,,1146,63,ok,19-03-2019 16:25
153,Pilot,2,yes,Other designer,1,lexical,10,sansforgetica,drojects,non-word,Probably non-word,0.6666666666666667,,,2920,63,ok,19-03-2019 16:25
154,Pilot,2,yes,Other designer,1,lexical,11,sansforgetica,television,word,Sure word,1,,,1427,63,ok,19-03-2019 16:25
155,Pilot,2,yes,Other designer,1,lexical,12,sansforgetica,given,word,Sure word,1,,,1115,63,ok,19-03-2019 16:25
156,Pilot,2,yes,Other designer,1,lexical,13,sansforgetica,regioney,non-word,Sure non-word,1,,,2781,63,ok,19-03-2019 16:25
157,Pilot,2,yes,Other designer,1,lexical,14,sansforgetica,money,word,Sure word,1,,,2299,63,ok,19-03-2019 16:25
158,Pilot,2,yes,Other designer,1,lexical,15,sansforgetica,break,word,Sure word,1,,,1077,63,ok,19-03-2019 16:25
159,Pilot,2,yes,Other designer,1,lexical,16,sansforgetica,creviver,non-word,Probably non-word,0.6666666666666667,,,1559,63,ok,19-03-2019 16:25
160,Pilot,2,yes,Other designer,1,lexical,17,sansforgetica,handence,non-word,Probably non-word,0.6666666666666667,,,1840,63,ok,19-03-2019 16:25
161,Pilot,2,yes,Other designer,1,lexical,18,sansforgetica,railts,non-word,Probably non-word,0.6666666666666667,,,1610,63,ok,19-03-2019 16:25
162,Pilot,2,yes,Other designer,1,lexical,19,sansforgetica,objectuffs,non-word,Probably non-word,0.6666666666666667,,,2212,63,ok,19-03-2019 16:25
163,Pilot,2,yes,Other designer,1,lexical,20,sansforgetica,probably,word,Sure word,1,,,1626,63,ok,19-03-2019 16:25
164,Pilot,2,yes,Other designer,1,recognition,1,sansforgetica,obsenctiage,non-word,Sure not seen,1,non-seen,objectuffs,4120,63,ok,19-03-2019 16:25
165,Pilot,2,yes,Other designer,1,recognition,2,sansforgetica,telling,word,Probably not seen,0.6666666666666667,non-seen,television,3853,63,ok,19-03-2019 16:25
166,Pilot,2,yes,Other designer,1,recognition,3,sansforgetica,relaterial,non-word,Sure not seen,1,non-seen,regioney,2322,63,ok,19-03-2019 16:25
167,Pilot,2,yes,Other designer,1,recognition,4,sansforgetica,workers,word,Sure not seen,1,non-seen,worked,1532,63,ok,19-03-2019 16:25
168,Pilot,2,yes,Other designer,1,recognition,5,sansforgetica,speed,word,Sure not seen,1,non-seen,speech,1215,63,ok,19-03-2019 16:25
169,Pilot,2,yes,Other designer,1,recognition,6,sansforgetica,althdren,non-word,Probably seen,0.6666666666666666,seen,althdren,4431,63,ok,19-03-2019 16:25
170,Pilot,2,yes,Other designer,1,recognition,7,sansforgetica,railts,non-word,Sure seen,1,seen,railts,2368,63,ok,19-03-2019 16:25
171,Pilot,2,yes,Other designer,1,recognition,8,sansforgetica,hanposed,non-word,Sure not seen,1,non-seen,handence,1671,63,ok,19-03-2019 16:25
172,Pilot,2,yes,Other designer,1,recognition,9,sansforgetica,women,word,Sure not seen,1,non-seen,without,2863,63,ok,19-03-2019 16:25
173,Pilot,2,yes,Other designer,1,recognition,10,sansforgetica,durprology,non-word,Sure not seen,1,non-seen,drojects,1782,63,ok,19-03-2019 16:25
174,Pilot,2,yes,Other designer,1,recognition,11,sansforgetica,money,word,Sure not seen,0,seen,money,3943,63,ok,19-03-2019 16:25
175,Pilot,2,yes,Other designer,1,recognition,12,sansforgetica,given,word,Sure seen,1,seen,given,3144,63,ok,19-03-2019 16:25
176,Pilot,2,yes,Other designer,1,recognition,13,sansforgetica,scievority,non-word,Probably not seen,0.3333333333333333,seen,scievority,5751,63,ok,19-03-2019 16:25
177,Pilot,2,yes,Other designer,1,recognition,14,sansforgetica,break,word,Sure seen,1,seen,break,1496,63,ok,19-03-2019 16:25
178,Pilot,2,yes,Other designer,1,recognition,15,sansforgetica,creviver,non-word,Probably not seen,0.3333333333333333,seen,creviver,1744,63,ok,19-03-2019 16:25
179,Pilot,2,yes,Other designer,1,recognition,16,sansforgetica,answered,word,Probably not seen,0.3333333333333333,seen,answered,3862,63,ok,19-03-2019 16:25
180,Pilot,2,yes,Other designer,2,lexical,1,inputsans,dindow,non-word,Probably non-word,0.6666666666666667,,,3444,60,difficult to read,19-03-2019 16:25
181,Pilot,2,yes,Other designer,2,lexical,2,inputsans,friend,word,Sure word,1,,,1517,60,difficult to read,19-03-2019 16:25
182,Pilot,2,yes,Other designer,2,lexical,3,inputsans,century,word,Sure word,1,,,1275,60,difficult to read,19-03-2019 16:25
183,Pilot,2,yes,Other designer,2,lexical,4,inputsans,letters,word,Sure word,1,,,1425,60,difficult to read,19-03-2019 16:25
184,Pilot,2,yes,Other designer,2,lexical,5,inputsans,balance,word,Sure word,1,,,944,60,difficult to read,19-03-2019 16:25
185,Pilot,2,yes,Other designer,2,lexical,6,inputsans,unpligatic,non-word,Probably word,0.33333333333333337,,,1831,60,difficult to read,19-03-2019 16:25
186,Pilot,2,yes,Other designer,2,lexical,7,inputsans,hunneshed,non-word,Probably non-word,0.6666666666666667,,,1911,60,difficult to read,19-03-2019 16:25
187,Pilot,2,yes,Other designer,2,lexical,8,inputsans,after,word,Sure word,1,,,1387,60,difficult to read,19-03-2019 16:25
188,Pilot,2,yes,Other designer,2,lexical,9,inputsans,veginnity,non-word,Probably non-word,0.6666666666666667,,,2042,60,difficult to read,19-03-2019 16:25
189,Pilot,2,yes,Other designer,2,lexical,10,inputsans,statement,word,Sure word,1,,,1465,60,difficult to read,19-03-2019 16:25
190,Pilot,2,yes,Other designer,2,lexical,11,inputsans,millars,non-word,Probably word,0.33333333333333337,,,4706,60,difficult to read,19-03-2019 16:25
191,Pilot,2,yes,Other designer,2,lexical,12,inputsans,anywhere,word,Sure word,1,,,1384,60,difficult to read,19-03-2019 16:25
192,Pilot,2,yes,Other designer,2,lexical,13,inputsans,discificial,non-word,Probably non-word,0.6666666666666667,,,2052,60,difficult to read,19-03-2019 16:25
193,Pilot,2,yes,Other designer,2,lexical,14,inputsans,aponoments,non-word,Probably non-word,0.6666666666666667,,,2287,60,difficult to read,19-03-2019 16:25
194,Pilot,2,yes,Other designer,2,lexical,15,inputsans,coming,word,Sure word,1,,,1403,60,difficult to read,19-03-2019 16:25
195,Pilot,2,yes,Other designer,2,lexical,16,inputsans,priend,non-word,Probably word,0.33333333333333337,,,1776,60,difficult to read,19-03-2019 16:25
196,Pilot,2,yes,Other designer,2,lexical,17,inputsans,narrow,word,Sure word,1,,,1114,60,difficult to read,19-03-2019 16:25
197,Pilot,2,yes,Other designer,2,lexical,18,inputsans,expeatious,non-word,Probably non-word,0.6666666666666667,,,1578,60,difficult to read,19-03-2019 16:25
198,Pilot,2,yes,Other designer,2,lexical,19,inputsans,rountes,non-word,Probably non-word,0.6666666666666667,,,2325,60,difficult to read,19-03-2019 16:25
199,Pilot,2,yes,Other designer,2,lexical,20,inputsans,touch,word,Sure word,1,,,1367,60,difficult to read,19-03-2019 16:25
200,Pilot,2,yes,Other designer,2,recognition,1,inputsans,states,word,Sure not seen,1,non-seen,statement,3685,60,difficult to read,19-03-2019 16:25
201,Pilot,2,yes,Other designer,2,recognition,2,inputsans,coming,word,Sure seen,1,seen,coming,1903,60,difficult to read,19-03-2019 16:25
202,Pilot,2,yes,Other designer,2,recognition,3,inputsans,after,word,Probably not seen,0.3333333333333333,seen,after,3476,60,difficult to read,19-03-2019 16:25
203,Pilot,2,yes,Other designer,2,recognition,4,inputsans,millars,non-word,Sure seen,1,seen,millars,1996,60,difficult to read,19-03-2019 16:25
204,Pilot,2,yes,Other designer,2,recognition,5,inputsans,friendly,word,Sure not seen,1,non-seen,friend,2092,60,difficult to read,19-03-2019 16:25
205,Pilot,2,yes,Other designer,2,recognition,6,inputsans,hunneshed,non-word,Probably not seen,0.3333333333333333,seen,hunneshed,4571,60,difficult to read,19-03-2019 16:25
206,Pilot,2,yes,Other designer,2,recognition,7,inputsans,rountes,non-word,Probably seen,0.6666666666666666,seen,rountes,7224,60,difficult to read,19-03-2019 16:25
207,Pilot,2,yes,Other designer,2,recognition,8,inputsans,expeativer,non-word,Probably seen,0.33333333333333337,non-seen,expeatious,2063,60,difficult to read,19-03-2019 16:25
208,Pilot,2,yes,Other designer,2,recognition,9,inputsans,level,word,Probably not seen,0.6666666666666667,non-seen,letters,11411,60,difficult to read,19-03-2019 16:25
209,Pilot,2,yes,Other designer,2,recognition,10,inputsans,veginnity,non-word,Probably seen,0.6666666666666666,seen,veginnity,2040,60,difficult to read,19-03-2019 16:25
210,Pilot,2,yes,Other designer,2,recognition,11,inputsans,touch,word,Sure seen,1,seen,touch,1604,60,difficult to read,19-03-2019 16:25
211,Pilot,2,yes,Other designer,2,recognition,12,inputsans,discinuing,non-word,Probably not seen,0.6666666666666667,non-seen,discificial,2039,60,difficult to read,19-03-2019 16:25
212,Pilot,2,yes,Other designer,2,recognition,13,inputsans,narrow,word,Sure seen,1,seen,narrow,1396,60,difficult to read,19-03-2019 16:25
213,Pilot,2,yes,Other designer,2,recognition,14,inputsans,certain,word,Probably not seen,0.6666666666666667,non-seen,century,4202,60,difficult to read,19-03-2019 16:25
214,Pilot,2,yes,Other designer,2,recognition,15,inputsans,direndly,non-word,Probably not seen,0.6666666666666667,non-seen,dindow,1669,60,difficult to read,19-03-2019 16:25
215,Pilot,2,yes,Other designer,2,recognition,16,inputsans,applictable,non-word,Probably not seen,0.6666666666666667,non-seen,aponoments,3415,60,difficult to read,19-03-2019 16:25
216,Pilot,3,yes,Non-designer,1,lexical,1,inputsans,finansive,non-word,Sure non-word,1,,,2001,40,easy to read,10-03-2019 12:06
217,Pilot,3,yes,Non-designer,1,lexical,2,inputsans,immediative,non-word,Sure non-word,1,,,1562,40,easy to read,10-03-2019 12:06
218,Pilot,3,yes,Non-designer,1,lexical,3,inputsans,soctic,non-word,Sure non-word,1,,,1094,40,easy to read,10-03-2019 12:06
219,Pilot,3,yes,Non-designer,1,lexical,4,inputsans,estitimes,non-word,Sure non-word,1,,,1009,40,easy to read,10-03-2019 12:06
220,Pilot,3,yes,Non-designer,1,lexical,5,inputsans,aware,word,Sure word,1,,,1401,40,easy to read,10-03-2019 12:06
221,Pilot,3,yes,Non-designer,1,lexical,6,inputsans,scale,word,Sure word,1,,,943,40,easy to read,10-03-2019 12:06
222,Pilot,3,yes,Non-designer,1,lexical,7,inputsans,computer,word,Sure word,1,,,1153,40,easy to read,10-03-2019 12:06
223,Pilot,3,yes,Non-designer,1,lexical,8,inputsans,individual,word,Sure word,1,,,847,40,easy to read,10-03-2019 12:06
224,Pilot,3,yes,Non-designer,1,lexical,9,inputsans,forgotter,non-word,Sure non-word,1,,,1695,40,easy to read,10-03-2019 12:06
225,Pilot,3,yes,Non-designer,1,lexical,10,inputsans,dressed,word,Sure word,1,,,1544,40,easy to read,10-03-2019 12:06
226,Pilot,3,yes,Non-designer,1,lexical,11,inputsans,sacusaned,non-word,Sure non-word,1,,,1609,40,easy to read,10-03-2019 12:06
227,Pilot,3,yes,Non-designer,1,lexical,12,inputsans,audience,word,Sure word,1,,,1688,40,easy to read,10-03-2019 12:06
228,Pilot,3,yes,Non-designer,1,lexical,13,inputsans,function,word,Sure word,1,,,919,40,easy to read,10-03-2019 12:06
229,Pilot,3,yes,Non-designer,1,lexical,14,inputsans,struggle,word,Sure word,1,,,899,40,easy to read,10-03-2019 12:06
230,Pilot,3,yes,Non-designer,1,lexical,15,inputsans,corner,word,Sure word,1,,,997,40,easy to read,10-03-2019 12:06
231,Pilot,3,yes,Non-designer,1,lexical,16,inputsans,airalow,non-word,Sure non-word,1,,,1761,40,easy to read,10-03-2019 12:06
232,Pilot,3,yes,Non-designer,1,lexical,17,inputsans,suggers,non-word,Sure non-word,1,,,1902,40,easy to read,10-03-2019 12:06
233,Pilot,3,yes,Non-designer,1,lexical,18,inputsans,vehients,non-word,Sure non-word,1,,,1000,40,easy to read,10-03-2019 12:06
234,Pilot,3,yes,Non-designer,1,lexical,19,inputsans,pentifical,non-word,Sure non-word,1,,,1210,40,easy to read,10-03-2019 12:06
235,Pilot,3,yes,Non-designer,1,lexical,20,inputsans,attitude,word,Sure word,1,,,1447,40,easy to read,10-03-2019 12:06
236,Pilot,3,yes,Non-designer,1,recognition,1,inputsans,eurviver,non-word,Probably not seen,0.6666666666666667,non-seen,estitimes,4480,40,easy to read,10-03-2019 12:06
237,Pilot,3,yes,Non-designer,1,recognition,2,inputsans,soctic,non-word,Probably not seen,0.3333333333333333,seen,soctic,1592,40,easy to read,10-03-2019 12:06
238,Pilot,3,yes,Non-designer,1,recognition,3,inputsans,authorities,word,Sure not seen,1,non-seen,audience,2320,40,easy to read,10-03-2019 12:06
239,Pilot,3,yes,Non-designer,1,recognition,4,inputsans,sancerats,non-word,Probably seen,0.33333333333333337,non-seen,sacusaned,2061,40,easy to read,10-03-2019 12:06
240,Pilot,3,yes,Non-designer,1,recognition,5,inputsans,velerion,non-word,Probably seen,0.33333333333333337,non-seen,vehients,1577,40,easy to read,10-03-2019 12:06
241,Pilot,3,yes,Non-designer,1,recognition,6,inputsans,corner,word,Probably not seen,0.3333333333333333,seen,corner,1952,40,easy to read,10-03-2019 12:06
242,Pilot,3,yes,Non-designer,1,recognition,7,inputsans,function,word,Sure seen,1,seen,function,1521,40,easy to read,10-03-2019 12:06
243,Pilot,3,yes,Non-designer,1,recognition,8,inputsans,suggesent,non-word,Sure seen,0,non-seen,suggers,2134,40,easy to read,10-03-2019 12:06
244,Pilot,3,yes,Non-designer,1,recognition,9,inputsans,aware,word,Sure seen,1,seen,aware,1545,40,easy to read,10-03-2019 12:06
245,Pilot,3,yes,Non-designer,1,recognition,10,inputsans,airalow,non-word,Probably seen,0.6666666666666666,seen,airalow,1905,40,easy to read,10-03-2019 12:06
246,Pilot,3,yes,Non-designer,1,recognition,11,inputsans,finansive,non-word,Probably seen,0.6666666666666666,seen,finansive,1703,40,easy to read,10-03-2019 12:06
247,Pilot,3,yes,Non-designer,1,recognition,12,inputsans,industrial,word,Probably seen,0.33333333333333337,non-seen,individual,1537,40,easy to read,10-03-2019 12:06
248,Pilot,3,yes,Non-designer,1,recognition,13,inputsans,studies,word,Probably seen,0.33333333333333337,non-seen,struggle,1303,40,easy to read,10-03-2019 12:06
249,Pilot,3,yes,Non-designer,1,recognition,14,inputsans,immediative,non-word,Sure seen,1,seen,immediative,1655,40,easy to read,10-03-2019 12:06
250,Pilot,3,yes,Non-designer,1,recognition,15,inputsans,computer,word,Sure seen,1,seen,computer,1922,40,easy to read,10-03-2019 12:06
251,Pilot,3,yes,Non-designer,1,recognition,16,inputsans,drink,word,Sure not seen,1,non-seen,dressed,1847,40,easy to read,10-03-2019 12:06
252,Pilot,3,yes,Non-designer,2,lexical,1,sansforgetica,stich,non-word,Sure non-word,1,,,2802,26,difficult to read,10-03-2019 12:06
253,Pilot,3,yes,Non-designer,2,lexical,2,sansforgetica,among,word,Sure word,1,,,1768,26,difficult to read,10-03-2019 12:06
254,Pilot,3,yes,Non-designer,2,lexical,3,sansforgetica,sungs,non-word,Sure non-word,1,,,1904,26,difficult to read,10-03-2019 12:06
255,Pilot,3,yes,Non-designer,2,lexical,4,sansforgetica,fraditted,non-word,Sure non-word,1,,,1736,26,difficult to read,10-03-2019 12:06
256,Pilot,3,yes,Non-designer,2,lexical,5,sansforgetica,breath,word,Sure word,1,,,1656,26,difficult to read,10-03-2019 12:06
257,Pilot,3,yes,Non-designer,2,lexical,6,sansforgetica,dictrised,non-word,Sure non-word,1,,,2176,26,difficult to read,10-03-2019 12:06
258,Pilot,3,yes,Non-designer,2,lexical,7,sansforgetica,create,word,Sure word,1,,,1656,26,difficult to read,10-03-2019 12:06
259,Pilot,3,yes,Non-designer,2,lexical,8,sansforgetica,assinquent,non-word,Sure non-word,1,,,2080,26,difficult to read,10-03-2019 12:06
260,Pilot,3,yes,Non-designer,2,lexical,9,sansforgetica,wrong,word,Sure word,1,,,2448,26,difficult to read,10-03-2019 12:06
261,Pilot,3,yes,Non-designer,2,lexical,10,sansforgetica,becruit,non-word,Sure non-word,1,,,2264,26,difficult to read,10-03-2019 12:06
262,Pilot,3,yes,Non-designer,2,lexical,11,sansforgetica,ahead,word,Sure word,1,,,1634,26,difficult to read,10-03-2019 12:06
263,Pilot,3,yes,Non-designer,2,lexical,12,sansforgetica,committee,word,Sure word,1,,,1341,26,difficult to read,10-03-2019 12:06
264,Pilot,3,yes,Non-designer,2,lexical,13,sansforgetica,choose,word,Sure word,1,,,961,26,difficult to read,10-03-2019 12:06
265,Pilot,3,yes,Non-designer,2,lexical,14,sansforgetica,dress,word,Sure word,1,,,1065,26,difficult to read,10-03-2019 12:06
266,Pilot,3,yes,Non-designer,2,lexical,15,sansforgetica,outhough,non-word,Sure non-word,1,,,3742,26,difficult to read,10-03-2019 12:06
267,Pilot,3,yes,Non-designer,2,lexical,16,sansforgetica,commerable,non-word,Sure non-word,1,,,2688,26,difficult to read,10-03-2019 12:06
268,Pilot,3,yes,Non-designer,2,lexical,17,sansforgetica,check,word,Sure word,1,,,1633,26,difficult to read,10-03-2019 12:06
269,Pilot,3,yes,Non-designer,2,lexical,18,sansforgetica,walls,word,Sure word,1,,,992,26,difficult to read,10-03-2019 12:06
270,Pilot,3,yes,Non-designer,2,lexical,19,sansforgetica,cuppened,non-word,Sure non-word,1,,,2185,26,difficult to read,10-03-2019 12:06
271,Pilot,3,yes,Non-designer,2,lexical,20,sansforgetica,apprest,non-word,Sure non-word,1,,,1559,26,difficult to read,10-03-2019 12:06
272,Pilot,3,yes,Non-designer,2,recognition,1,sansforgetica,ahead,word,Sure seen,1,seen,ahead,6318,26,difficult to read,10-03-2019 12:06
273,Pilot,3,yes,Non-designer,2,recognition,2,sansforgetica,chosen,word,Probably seen,0.33333333333333337,non-seen,choose,3160,26,difficult to read,10-03-2019 12:06
274,Pilot,3,yes,Non-designer,2,recognition,3,sansforgetica,outhough,non-word,Sure seen,1,seen,outhough,2704,26,difficult to read,10-03-2019 12:06
275,Pilot,3,yes,Non-designer,2,recognition,4,sansforgetica,fraditted,non-word,Probably seen,0.6666666666666666,seen,fraditted,2169,26,difficult to read,10-03-2019 12:06
276,Pilot,3,yes,Non-designer,2,recognition,5,sansforgetica,check,word,Probably seen,0.6666666666666666,seen,check,1400,26,difficult to read,10-03-2019 12:06
277,Pilot,3,yes,Non-designer,2,recognition,6,sansforgetica,cuppened,non-word,Sure seen,1,seen,cuppened,2158,26,difficult to read,10-03-2019 12:06
278,Pilot,3,yes,Non-designer,2,recognition,7,sansforgetica,commerable,non-word,Sure seen,1,seen,commerable,1473,26,difficult to read,10-03-2019 12:06
279,Pilot,3,yes,Non-designer,2,recognition,8,sansforgetica,arges,non-word,Sure not seen,1,non-seen,apprest,1991,26,difficult to read,10-03-2019 12:06
280,Pilot,3,yes,Non-designer,2,recognition,9,sansforgetica,committee,word,Probably seen,0.6666666666666666,seen,committee,1865,26,difficult to read,10-03-2019 12:06
281,Pilot,3,yes,Non-designer,2,recognition,10,sansforgetica,wrote,word,Probably seen,0.33333333333333337,non-seen,wrong,1656,26,difficult to read,10-03-2019 12:06
282,Pilot,3,yes,Non-designer,2,recognition,11,sansforgetica,differsive,non-word,Probably not seen,0.6666666666666667,non-seen,dictrised,1945,26,difficult to read,10-03-2019 12:06
283,Pilot,3,yes,Non-designer,2,recognition,12,sansforgetica,walls,word,Probably seen,0.6666666666666666,seen,walls,1807,26,difficult to read,10-03-2019 12:06
284,Pilot,3,yes,Non-designer,2,recognition,13,sansforgetica,stort,non-word,Probably not seen,0.6666666666666667,non-seen,stich,1600,26,difficult to read,10-03-2019 12:06
285,Pilot,3,yes,Non-designer,2,recognition,14,sansforgetica,begar,non-word,Sure not seen,1,non-seen,becruit,1785,26,difficult to read,10-03-2019 12:06
286,Pilot,3,yes,Non-designer,2,recognition,15,sansforgetica,bridge,word,Probably not seen,0.6666666666666667,non-seen,breath,2591,26,difficult to read,10-03-2019 12:06
287,Pilot,3,yes,Non-designer,2,recognition,16,sansforgetica,created,word,Probably seen,0.33333333333333337,non-seen,create,1594,26,difficult to read,10-03-2019 12:06
288,Pilot,4,yes,Non-designer,1,lexical,1,inputsans,growth,word,Sure word,1,,,1658,55,very easy to read,08-03-2019 18:44
289,Pilot,4,yes,Non-designer,1,lexical,2,inputsans,fathed,non-word,Sure non-word,1,,,1911,55,very easy to read,08-03-2019 18:44
290,Pilot,4,yes,Non-designer,1,lexical,3,inputsans,promatic,non-word,Sure non-word,1,,,1545,55,very easy to read,08-03-2019 18:44
291,Pilot,4,yes,Non-designer,1,lexical,4,inputsans,sountion,non-word,Sure non-word,1,,,2240,55,very easy to read,08-03-2019 18:44
292,Pilot,4,yes,Non-designer,1,lexical,5,inputsans,courses,word,Sure word,1,,,1512,55,very easy to read,08-03-2019 18:44
293,Pilot,4,yes,Non-designer,1,lexical,6,inputsans,togetits,non-word,Sure non-word,1,,,2024,55,very easy to read,08-03-2019 18:44
294,Pilot,4,yes,Non-designer,1,lexical,7,inputsans,population,word,Sure word,1,,,1849,55,very easy to read,08-03-2019 18:44
295,Pilot,4,yes,Non-designer,1,lexical,8,inputsans,wealth,word,Sure word,1,,,1440,55,very easy to read,08-03-2019 18:44
296,Pilot,4,yes,Non-designer,1,lexical,9,inputsans,entirely,word,Sure word,1,,,902,55,very easy to read,08-03-2019 18:44
297,Pilot,4,yes,Non-designer,1,lexical,10,inputsans,amerying,non-word,Sure non-word,1,,,1553,55,very easy to read,08-03-2019 18:44
298,Pilot,4,yes,Non-designer,1,lexical,11,inputsans,ordiever,non-word,Sure non-word,1,,,2065,55,very easy to read,08-03-2019 18:44
299,Pilot,4,yes,Non-designer,1,lexical,12,inputsans,double,word,Sure word,1,,,1359,55,very easy to read,08-03-2019 18:44
300,Pilot,4,yes,Non-designer,1,lexical,13,inputsans,democracy,word,Sure word,1,,,1495,55,very easy to read,08-03-2019 18:44
301,Pilot,4,yes,Non-designer,1,lexical,14,inputsans,emposprism,non-word,Sure non-word,1,,,1473,55,very easy to read,08-03-2019 18:44
302,Pilot,4,yes,Non-designer,1,lexical,15,inputsans,project,word,Sure word,1,,,1352,55,very easy to read,08-03-2019 18:44
303,Pilot,4,yes,Non-designer,1,lexical,16,inputsans,eating,word,Sure word,1,,,951,55,very easy to read,08-03-2019 18:44
304,Pilot,4,yes,Non-designer,1,lexical,17,inputsans,ultomobile,non-word,Sure non-word,1,,,1799,55,very easy to read,08-03-2019 18:44
305,Pilot,4,yes,Non-designer,1,lexical,18,inputsans,plenty,word,Sure word,1,,,1592,55,very easy to read,08-03-2019 18:44
306,Pilot,4,yes,Non-designer,1,lexical,19,inputsans,minsuit,non-word,Sure non-word,1,,,1545,55,very easy to read,08-03-2019 18:44
307,Pilot,4,yes,Non-designer,1,lexical,20,inputsans,fielve,non-word,Sure non-word,1,,,1050,55,very easy to read,08-03-2019 18:44
308,Pilot,4,yes,Non-designer,1,recognition,1,inputsans,fielve,non-word,Probably not seen,0.3333333333333333,seen,fielve,2895,55,very easy to read,08-03-2019 18:44
309,Pilot,4,yes,Non-designer,1,recognition,2,inputsans,ordiever,non-word,Sure not seen,0,seen,ordiever,1800,55,very easy to read,08-03-2019 18:44
310,Pilot,4,yes,Non-designer,1,recognition,3,inputsans,population,word,Probably seen,0.6666666666666666,seen,population,1671,55,very easy to read,08-03-2019 18:44
311,Pilot,4,yes,Non-designer,1,recognition,4,inputsans,environment,word,Probably not seen,0.6666666666666667,non-seen,entirely,2433,55,very easy to read,08-03-2019 18:44
312,Pilot,4,yes,Non-designer,1,recognition,5,inputsans,emposprism,non-word,Sure not seen,0,seen,emposprism,3112,55,very easy to read,08-03-2019 18:44
313,Pilot,4,yes,Non-designer,1,recognition,6,inputsans,weapons,word,Sure not seen,1,non-seen,wealth,2370,55,very easy to read,08-03-2019 18:44
314,Pilot,4,yes,Non-designer,1,recognition,7,inputsans,mircract,non-word,Sure not seen,1,non-seen,minsuit,1702,55,very easy to read,08-03-2019 18:44
315,Pilot,4,yes,Non-designer,1,recognition,8,inputsans,democracy,word,Probably not seen,0.3333333333333333,seen,democracy,2768,55,very easy to read,08-03-2019 18:44
316,Pilot,4,yes,Non-designer,1,recognition,9,inputsans,fathed,non-word,Probably not seen,0.3333333333333333,seen,fathed,1848,55,very easy to read,08-03-2019 18:44
317,Pilot,4,yes,Non-designer,1,recognition,10,inputsans,sovess,non-word,Sure not seen,1,non-seen,sountion,1903,55,very easy to read,08-03-2019 18:44
318,Pilot,4,yes,Non-designer,1,recognition,11,inputsans,promoring,non-word,Sure not seen,1,non-seen,promatic,1657,55,very easy to read,08-03-2019 18:44
319,Pilot,4,yes,Non-designer,1,recognition,12,inputsans,guess,word,Sure not seen,1,non-seen,growth,1752,55,very easy to read,08-03-2019 18:44
320,Pilot,4,yes,Non-designer,1,recognition,13,inputsans,umbrated,non-word,Sure not seen,1,non-seen,ultomobile,1985,55,very easy to read,08-03-2019 18:44
321,Pilot,4,yes,Non-designer,1,recognition,14,inputsans,plenty,word,Probably not seen,0.3333333333333333,seen,plenty,2448,55,very easy to read,08-03-2019 18:44
322,Pilot,4,yes,Non-designer,1,recognition,15,inputsans,court,word,Sure not seen,1,non-seen,courses,1911,55,very easy to read,08-03-2019 18:44
323,Pilot,4,yes,Non-designer,1,recognition,16,inputsans,project,word,Probably seen,0.6666666666666666,seen,project,2104,55,very easy to read,08-03-2019 18:44
324,Pilot,4,yes,Non-designer,2,lexical,1,sansforgetica,enreloping,non-word,Sure non-word,1,,,2824,38,very difficult to read,08-03-2019 18:44
325,Pilot,4,yes,Non-designer,2,lexical,2,sansforgetica,announced,word,Sure word,1,,,1953,38,very difficult to read,08-03-2019 18:44
326,Pilot,4,yes,Non-designer,2,lexical,3,sansforgetica,popular,word,Sure word,1,,,1735,38,very difficult to read,08-03-2019 18:44
327,Pilot,4,yes,Non-designer,2,lexical,4,sansforgetica,dictrised,non-word,Sure non-word,1,,,4528,38,very difficult to read,08-03-2019 18:44
328,Pilot,4,yes,Non-designer,2,lexical,5,sansforgetica,nuccest,non-word,Sure non-word,1,,,1401,38,very difficult to read,08-03-2019 18:44
329,Pilot,4,yes,Non-designer,2,lexical,6,sansforgetica,character,word,Sure word,1,,,2409,38,very difficult to read,08-03-2019 18:44
330,Pilot,4,yes,Non-designer,2,lexical,7,sansforgetica,looks,word,Sure word,1,,,2352,38,very difficult to read,08-03-2019 18:44
331,Pilot,4,yes,Non-designer,2,lexical,8,sansforgetica,sidlater,non-word,Sure non-word,1,,,2118,38,very difficult to read,08-03-2019 18:44
332,Pilot,4,yes,Non-designer,2,lexical,9,sansforgetica,throure,non-word,Sure non-word,1,,,2441,38,very difficult to read,08-03-2019 18:44
333,Pilot,4,yes,Non-designer,2,lexical,10,sansforgetica,plans,word,Sure word,1,,,1705,38,very difficult to read,08-03-2019 18:44
334,Pilot,4,yes,Non-designer,2,lexical,11,sansforgetica,venerweared,non-word,Sure non-word,1,,,2176,38,very difficult to read,08-03-2019 18:44
335,Pilot,4,yes,Non-designer,2,lexical,12,sansforgetica,hidnectes,non-word,Sure non-word,1,,,2728,38,very difficult to read,08-03-2019 18:44
336,Pilot,4,yes,Non-designer,2,lexical,13,sansforgetica,holts,non-word,Sure word,0,,,3423,38,very difficult to read,08-03-2019 18:44
337,Pilot,4,yes,Non-designer,2,lexical,14,sansforgetica,health,word,Sure word,1,,,1136,38,very difficult to read,08-03-2019 18:44
338,Pilot,4,yes,Non-designer,2,lexical,15,sansforgetica,giving,word,Sure word,1,,,930,38,very difficult to read,08-03-2019 18:44
339,Pilot,4,yes,Non-designer,2,lexical,16,sansforgetica,conandere,non-word,Sure non-word,1,,,1982,38,very difficult to read,08-03-2019 18:44
340,Pilot,4,yes,Non-designer,2,lexical,17,sansforgetica,investment,word,Sure word,1,,,1808,38,very difficult to read,08-03-2019 18:44
341,Pilot,4,yes,Non-designer,2,lexical,18,sansforgetica,thirty,word,Sure word,1,,,2009,38,very difficult to read,08-03-2019 18:44
342,Pilot,4,yes,Non-designer,2,lexical,19,sansforgetica,square,word,Sure word,1,,,1752,38,very difficult to read,08-03-2019 18:44
343,Pilot,4,yes,Non-designer,2,lexical,20,sansforgetica,scratious,non-word,Sure non-word,1,,,2039,38,very difficult to read,08-03-2019 18:44
344,Pilot,4,yes,Non-designer,2,recognition,1,sansforgetica,sidlater,non-word,Probably seen,0.6666666666666666,seen,sidlater,2473,38,very difficult to read,08-03-2019 18:44
345,Pilot,4,yes,Non-designer,2,recognition,2,sansforgetica,plans,word,Probably not seen,0.3333333333333333,seen,plans,1703,38,very difficult to read,08-03-2019 18:44
346,Pilot,4,yes,Non-designer,2,recognition,3,sansforgetica,holts,non-word,Probably seen,0.6666666666666666,seen,holts,1569,38,very difficult to read,08-03-2019 18:44
347,Pilot,4,yes,Non-designer,2,recognition,4,sansforgetica,announced,word,Probably seen,0.6666666666666666,seen,announced,1616,38,very difficult to read,08-03-2019 18:44
348,Pilot,4,yes,Non-designer,2,recognition,5,sansforgetica,thrughts,non-word,Sure not seen,1,non-seen,throure,2210,38,very difficult to read,08-03-2019 18:44
349,Pilot,4,yes,Non-designer,2,recognition,6,sansforgetica,dictrised,non-word,Sure not seen,0,seen,dictrised,1830,38,very difficult to read,08-03-2019 18:44
350,Pilot,4,yes,Non-designer,2,recognition,7,sansforgetica,entervished,non-word,Probably not seen,0.6666666666666667,non-seen,enreloping,1967,38,very difficult to read,08-03-2019 18:44
351,Pilot,4,yes,Non-designer,2,recognition,8,sansforgetica,popular,word,Probably seen,0.6666666666666666,seen,popular,1657,38,very difficult to read,08-03-2019 18:44
352,Pilot,4,yes,Non-designer,2,recognition,9,sansforgetica,hidnectes,non-word,Probably not seen,0.3333333333333333,seen,hidnectes,1983,38,very difficult to read,08-03-2019 18:44
353,Pilot,4,yes,Non-designer,2,recognition,10,sansforgetica,charge,word,Probably not seen,0.6666666666666667,non-seen,character,2064,38,very difficult to read,08-03-2019 18:44
354,Pilot,4,yes,Non-designer,2,recognition,11,sansforgetica,health,word,Sure seen,1,seen,health,1752,38,very difficult to read,08-03-2019 18:44
355,Pilot,4,yes,Non-designer,2,recognition,12,sansforgetica,staff,word,Probably not seen,0.6666666666666667,non-seen,square,2065,38,very difficult to read,08-03-2019 18:44
356,Pilot,4,yes,Non-designer,2,recognition,13,sansforgetica,verection,non-word,Probably seen,0.33333333333333337,non-seen,venerweared,2584,38,very difficult to read,08-03-2019 18:44
357,Pilot,4,yes,Non-designer,2,recognition,14,sansforgetica,those,word,Probably not seen,0.6666666666666667,non-seen,thirty,1823,38,very difficult to read,08-03-2019 18:44
358,Pilot,4,yes,Non-designer,2,recognition,15,sansforgetica,nucking,non-word,Sure not seen,1,non-seen,nuccest,2456,38,very difficult to read,08-03-2019 18:44
359,Pilot,4,yes,Non-designer,2,recognition,16,sansforgetica,glass,word,Sure not seen,1,non-seen,giving,1880,38,very difficult to read,08-03-2019 18:44
360,Pilot,5,yes,Non-designer,1,lexical,1,sansforgetica,streets,word,Sure word,1,,,2152,63,difficult to read,08-03-2019 17:36
361,Pilot,5,yes,Non-designer,1,lexical,2,sansforgetica,steet,non-word,Sure non-word,1,,,3040,63,difficult to read,08-03-2019 17:36
362,Pilot,5,yes,Non-designer,1,lexical,3,sansforgetica,papid,non-word,Sure non-word,1,,,1529,63,difficult to read,08-03-2019 17:36
363,Pilot,5,yes,Non-designer,1,lexical,4,sansforgetica,division,word,Sure word,1,,,1905,63,difficult to read,08-03-2019 17:36
364,Pilot,5,yes,Non-designer,1,lexical,5,sansforgetica,merely,word,Sure word,1,,,1312,63,difficult to read,08-03-2019 17:36
365,Pilot,5,yes,Non-designer,1,lexical,6,sansforgetica,undonestes,non-word,Sure non-word,1,,,2000,63,difficult to read,08-03-2019 17:36
366,Pilot,5,yes,Non-designer,1,lexical,7,sansforgetica,wourt,non-word,Sure non-word,1,,,1602,63,difficult to read,08-03-2019 17:36
367,Pilot,5,yes,Non-designer,1,lexical,8,sansforgetica,making,word,Sure word,1,,,1710,63,difficult to read,08-03-2019 17:36
368,Pilot,5,yes,Non-designer,1,lexical,9,sansforgetica,desping,non-word,Sure non-word,1,,,2327,63,difficult to read,08-03-2019 17:36
369,Pilot,5,yes,Non-designer,1,lexical,10,sansforgetica,without,word,Sure word,1,,,1521,63,difficult to read,08-03-2019 17:36
370,Pilot,5,yes,Non-designer,1,lexical,11,sansforgetica,impeady,non-word,Sure non-word,1,,,2079,63,difficult to read,08-03-2019 17:36
371,Pilot,5,yes,Non-designer,1,lexical,12,sansforgetica,pigeboy,non-word,Sure non-word,1,,,1273,63,difficult to read,08-03-2019 17:36
372,Pilot,5,yes,Non-designer,1,lexical,13,sansforgetica,realicult,non-word,Sure non-word,1,,,1343,63,difficult to read,08-03-2019 17:36
373,Pilot,5,yes,Non-designer,1,lexical,14,sansforgetica,success,word,Sure word,1,,,1545,63,difficult to read,08-03-2019 17:36
374,Pilot,5,yes,Non-designer,1,lexical,15,sansforgetica,surprise,word,Sure word,1,,,1056,63,difficult to read,08-03-2019 17:36
375,Pilot,5,yes,Non-designer,1,lexical,16,sansforgetica,stood,word,Sure word,1,,,1127,63,difficult to read,08-03-2019 17:36
376,Pilot,5,yes,Non-designer,1,lexical,17,sansforgetica,hysturably,non-word,Sure non-word,1,,,2080,63,difficult to read,08-03-2019 17:36
377,Pilot,5,yes,Non-designer,1,lexical,18,sansforgetica,considered,word,Sure word,1,,,4039,63,difficult to read,08-03-2019 17:36
378,Pilot,5,yes,Non-designer,1,lexical,19,sansforgetica,frangee,non-word,Sure non-word,1,,,1528,63,difficult to read,08-03-2019 17:36
379,Pilot,5,yes,Non-designer,1,lexical,20,sansforgetica,company,word,Sure word,1,,,1538,63,difficult to read,08-03-2019 17:36
380,Pilot,5,yes,Non-designer,1,recognition,1,sansforgetica,message,word,Probably not seen,0.6666666666666667,non-seen,merely,3312,63,difficult to read,08-03-2019 17:36
381,Pilot,5,yes,Non-designer,1,recognition,2,sansforgetica,stich,non-word,Probably not seen,0.6666666666666667,non-seen,steet,1622,63,difficult to read,08-03-2019 17:36
382,Pilot,5,yes,Non-designer,1,recognition,3,sansforgetica,desposed,non-word,Probably seen,0.33333333333333337,non-seen,desping,1873,63,difficult to read,08-03-2019 17:36
383,Pilot,5,yes,Non-designer,1,recognition,4,sansforgetica,hysturably,non-word,Probably seen,0.6666666666666666,seen,hysturably,3543,63,difficult to read,08-03-2019 17:36
384,Pilot,5,yes,Non-designer,1,recognition,5,sansforgetica,streets,word,Sure seen,1,seen,streets,1632,63,difficult to read,08-03-2019 17:36
385,Pilot,5,yes,Non-designer,1,recognition,6,sansforgetica,stood,word,Probably seen,0.6666666666666666,seen,stood,1737,63,difficult to read,08-03-2019 17:36
386,Pilot,5,yes,Non-designer,1,recognition,7,sansforgetica,pigeboy,non-word,Sure seen,1,seen,pigeboy,2088,63,difficult to read,08-03-2019 17:36
387,Pilot,5,yes,Non-designer,1,recognition,8,sansforgetica,papsy,non-word,Probably not seen,0.6666666666666667,non-seen,papid,2103,63,difficult to read,08-03-2019 17:36
388,Pilot,5,yes,Non-designer,1,recognition,9,sansforgetica,women,word,Probably not seen,0.6666666666666667,non-seen,without,1808,63,difficult to read,08-03-2019 17:36
389,Pilot,5,yes,Non-designer,1,recognition,10,sansforgetica,contact,word,Probably not seen,0.6666666666666667,non-seen,considered,1433,63,difficult to read,08-03-2019 17:36
390,Pilot,5,yes,Non-designer,1,recognition,11,sansforgetica,surprise,word,Probably seen,0.6666666666666666,seen,surprise,1552,63,difficult to read,08-03-2019 17:36
391,Pilot,5,yes,Non-designer,1,recognition,12,sansforgetica,undouring,non-word,Sure not seen,1,non-seen,undonestes,2447,63,difficult to read,08-03-2019 17:36
392,Pilot,5,yes,Non-designer,1,recognition,13,sansforgetica,company,word,Probably not seen,0.3333333333333333,seen,company,3425,63,difficult to read,08-03-2019 17:36
393,Pilot,5,yes,Non-designer,1,recognition,14,sansforgetica,wourt,non-word,Probably seen,0.6666666666666666,seen,wourt,2279,63,difficult to read,08-03-2019 17:36
394,Pilot,5,yes,Non-designer,1,recognition,15,sansforgetica,doctor,word,Sure not seen,1,non-seen,division,2000,63,difficult to read,08-03-2019 17:36
395,Pilot,5,yes,Non-designer,1,recognition,16,sansforgetica,impeady,non-word,Probably seen,0.6666666666666666,seen,impeady,1857,63,difficult to read,08-03-2019 17:36
396,Pilot,5,yes,Non-designer,2,lexical,1,inputsans,running,word,Sure word,1,,,2352,71,easy to read,08-03-2019 17:36
397,Pilot,5,yes,Non-designer,2,lexical,2,inputsans,actually,word,Sure word,1,,,1610,71,easy to read,08-03-2019 17:36
398,Pilot,5,yes,Non-designer,2,lexical,3,inputsans,structure,word,Sure word,1,,,1109,71,easy to read,08-03-2019 17:36
399,Pilot,5,yes,Non-designer,2,lexical,4,inputsans,create,word,Sure word,1,,,1250,71,easy to read,08-03-2019 17:36
400,Pilot,5,yes,Non-designer,2,lexical,5,inputsans,leading,word,Sure word,1,,,1424,71,easy to read,08-03-2019 17:36
401,Pilot,5,yes,Non-designer,2,lexical,6,inputsans,given,word,Sure word,1,,,903,71,easy to read,08-03-2019 17:36
402,Pilot,5,yes,Non-designer,2,lexical,7,inputsans,plants,word,Sure word,1,,,1108,71,easy to read,08-03-2019 17:36
403,Pilot,5,yes,Non-designer,2,lexical,8,inputsans,crevided,non-word,Sure non-word,1,,,1767,71,easy to read,08-03-2019 17:36
404,Pilot,5,yes,Non-designer,2,lexical,9,inputsans,libertably,non-word,Sure non-word,1,,,1313,71,easy to read,08-03-2019 17:36
405,Pilot,5,yes,Non-designer,2,lexical,10,inputsans,occational,non-word,Sure non-word,1,,,1407,71,easy to read,08-03-2019 17:36
406,Pilot,5,yes,Non-designer,2,lexical,11,inputsans,littletely,non-word,Sure non-word,1,,,1416,71,easy to read,08-03-2019 17:36
407,Pilot,5,yes,Non-designer,2,lexical,12,inputsans,preeding,non-word,Sure non-word,1,,,1273,71,easy to read,08-03-2019 17:36
408,Pilot,5,yes,Non-designer,2,lexical,13,inputsans,actual,word,Sure word,1,,,1799,71,easy to read,08-03-2019 17:36
409,Pilot,5,yes,Non-designer,2,lexical,14,inputsans,strantely,non-word,Sure non-word,1,,,2127,71,easy to read,08-03-2019 17:36
410,Pilot,5,yes,Non-designer,2,lexical,15,inputsans,share,word,Sure word,1,,,1785,71,easy to read,08-03-2019 17:36
411,Pilot,5,yes,Non-designer,2,lexical,16,inputsans,durprology,non-word,Sure non-word,1,,,1937,71,easy to read,08-03-2019 17:36
412,Pilot,5,yes,Non-designer,2,lexical,17,inputsans,ruscle,non-word,Sure non-word,1,,,1712,71,easy to read,08-03-2019 17:36
413,Pilot,5,yes,Non-designer,2,lexical,18,inputsans,outsing,non-word,Sure non-word,1,,,1193,71,easy to read,08-03-2019 17:36
414,Pilot,5,yes,Non-designer,2,lexical,19,inputsans,directly,word,Sure word,1,,,1638,71,easy to read,08-03-2019 17:36
415,Pilot,5,yes,Non-designer,2,lexical,20,inputsans,opergence,non-word,Sure non-word,1,,,2055,71,easy to read,08-03-2019 17:36
416,Pilot,5,yes,Non-designer,2,recognition,1,inputsans,director,word,Sure not seen,1,non-seen,directly,2456,71,easy to read,08-03-2019 17:36
417,Pilot,5,yes,Non-designer,2,recognition,2,inputsans,sharp,word,Sure not seen,1,non-seen,share,1712,71,easy to read,08-03-2019 17:36
418,Pilot,5,yes,Non-designer,2,recognition,3,inputsans,durprology,non-word,Sure seen,1,seen,durprology,2112,71,easy to read,08-03-2019 17:36
419,Pilot,5,yes,Non-designer,2,recognition,4,inputsans,learn,word,Sure seen,0,non-seen,leading,1593,71,easy to read,08-03-2019 17:36
420,Pilot,5,yes,Non-designer,2,recognition,5,inputsans,rutogement,non-word,Sure not seen,1,non-seen,ruscle,2504,71,easy to read,08-03-2019 17:36
421,Pilot,5,yes,Non-designer,2,recognition,6,inputsans,outting,non-word,Probably not seen,0.6666666666666667,non-seen,outsing,2103,71,easy to read,08-03-2019 17:36
422,Pilot,5,yes,Non-designer,2,recognition,7,inputsans,opergence,non-word,Probably seen,0.6666666666666666,seen,opergence,1951,71,easy to read,08-03-2019 17:36
423,Pilot,5,yes,Non-designer,2,recognition,8,inputsans,actually,word,Sure seen,1,seen,actually,1608,71,easy to read,08-03-2019 17:36
424,Pilot,5,yes,Non-designer,2,recognition,9,inputsans,actual,word,Sure not seen,0,seen,actual,3449,71,easy to read,08-03-2019 17:36
425,Pilot,5,yes,Non-designer,2,recognition,10,inputsans,strantely,non-word,Sure seen,1,seen,strantely,3080,71,easy to read,08-03-2019 17:36
426,Pilot,5,yes,Non-designer,2,recognition,11,inputsans,given,word,Probably seen,0.6666666666666666,seen,given,1664,71,easy to read,08-03-2019 17:36
427,Pilot,5,yes,Non-designer,2,recognition,12,inputsans,littor,non-word,Sure not seen,1,non-seen,littletely,2055,71,easy to read,08-03-2019 17:36
428,Pilot,5,yes,Non-designer,2,recognition,13,inputsans,creviver,non-word,Probably not seen,0.6666666666666667,non-seen,crevided,1865,71,easy to read,08-03-2019 17:36
429,Pilot,5,yes,Non-designer,2,recognition,14,inputsans,preeding,non-word,Probably not seen,0.3333333333333333,seen,preeding,3510,71,easy to read,08-03-2019 17:36
430,Pilot,5,yes,Non-designer,2,recognition,15,inputsans,create,word,Sure seen,1,seen,create,1703,71,easy to read,08-03-2019 17:36
431,Pilot,5,yes,Non-designer,2,recognition,16,inputsans,radio,word,Sure not seen,1,non-seen,running,1815,71,easy to read,08-03-2019 17:36
432,Pilot,6,yes,Non-designer,1,lexical,1,sansforgetica,imputives,non-word,Sure non-word,1,,,2752,40,difficult to read,06-03-2019 17:18
433,Pilot,6,yes,Non-designer,1,lexical,2,sansforgetica,relitical,non-word,Sure non-word,1,,,1928,40,difficult to read,06-03-2019 17:18
434,Pilot,6,yes,Non-designer,1,lexical,3,sansforgetica,enemy,word,Sure word,1,,,3153,40,difficult to read,06-03-2019 17:18
435,Pilot,6,yes,Non-designer,1,lexical,4,sansforgetica,cross,word,Sure word,1,,,1312,40,difficult to read,06-03-2019 17:18
436,Pilot,6,yes,Non-designer,1,lexical,5,sansforgetica,history,word,Sure word,1,,,937,40,difficult to read,06-03-2019 17:18
437,Pilot,6,yes,Non-designer,1,lexical,6,sansforgetica,chapter,word,Sure word,1,,,990,40,difficult to read,06-03-2019 17:18
438,Pilot,6,yes,Non-designer,1,lexical,7,sansforgetica,memand,non-word,Sure non-word,1,,,2177,40,difficult to read,06-03-2019 17:18
439,Pilot,6,yes,Non-designer,1,lexical,8,sansforgetica,fildle,non-word,Sure non-word,1,,,2032,40,difficult to read,06-03-2019 17:18
440,Pilot,6,yes,Non-designer,1,lexical,9,sansforgetica,attempt,word,Sure word,1,,,1648,40,difficult to read,06-03-2019 17:18
441,Pilot,6,yes,Non-designer,1,lexical,10,sansforgetica,nortinge,non-word,Sure non-word,1,,,1767,40,difficult to read,06-03-2019 17:18
442,Pilot,6,yes,Non-designer,1,lexical,11,sansforgetica,gensibility,non-word,Sure non-word,1,,,2033,40,difficult to read,06-03-2019 17:18
443,Pilot,6,yes,Non-designer,1,lexical,12,sansforgetica,meant,word,Sure word,1,,,1624,40,difficult to read,06-03-2019 17:18
444,Pilot,6,yes,Non-designer,1,lexical,13,sansforgetica,confersate,non-word,Sure non-word,1,,,2296,40,difficult to read,06-03-2019 17:18
445,Pilot,6,yes,Non-designer,1,lexical,14,sansforgetica,descussed,non-word,Sure non-word,1,,,1586,40,difficult to read,06-03-2019 17:18
446,Pilot,6,yes,Non-designer,1,lexical,15,sansforgetica,noise,word,Sure word,1,,,1693,40,difficult to read,06-03-2019 17:18
447,Pilot,6,yes,Non-designer,1,lexical,16,sansforgetica,named,word,Sure word,1,,,1177,40,difficult to read,06-03-2019 17:18
448,Pilot,6,yes,Non-designer,1,lexical,17,sansforgetica,parliament,word,Sure word,1,,,1911,40,difficult to read,06-03-2019 17:18
449,Pilot,6,yes,Non-designer,1,lexical,18,sansforgetica,argued,word,Sure word,1,,,1082,40,difficult to read,06-03-2019 17:18
450,Pilot,6,yes,Non-designer,1,lexical,19,sansforgetica,increved,non-word,Sure non-word,1,,,2286,40,difficult to read,06-03-2019 17:18
451,Pilot,6,yes,Non-designer,1,lexical,20,sansforgetica,counticks,non-word,Sure non-word,1,,,1393,40,difficult to read,06-03-2019 17:18
452,Pilot,6,yes,Non-designer,1,recognition,1,sansforgetica,gereed,non-word,Probably not seen,0.6666666666666667,non-seen,gensibility,3239,40,difficult to read,06-03-2019 17:18
453,Pilot,6,yes,Non-designer,1,recognition,2,sansforgetica,argued,word,Sure seen,1,seen,argued,1855,40,difficult to read,06-03-2019 17:18
454,Pilot,6,yes,Non-designer,1,recognition,3,sansforgetica,incriance,non-word,Sure not seen,1,non-seen,increved,2857,40,difficult to read,06-03-2019 17:18
455,Pilot,6,yes,Non-designer,1,recognition,4,sansforgetica,chapter,word,Sure seen,1,seen,chapter,2368,40,difficult to read,06-03-2019 17:18
456,Pilot,6,yes,Non-designer,1,recognition,5,sansforgetica,nortinge,non-word,Sure seen,1,seen,nortinge,2329,40,difficult to read,06-03-2019 17:18
457,Pilot,6,yes,Non-designer,1,recognition,6,sansforgetica,enemy,word,Probably seen,0.6666666666666666,seen,enemy,2294,40,difficult to read,06-03-2019 17:18
458,Pilot,6,yes,Non-designer,1,recognition,7,sansforgetica,particular,word,Probably seen,0.33333333333333337,non-seen,parliament,1496,40,difficult to read,06-03-2019 17:18
459,Pilot,6,yes,Non-designer,1,recognition,8,sansforgetica,desing,non-word,Probably not seen,0.6666666666666667,non-seen,descussed,2065,40,difficult to read,06-03-2019 17:18
460,Pilot,6,yes,Non-designer,1,recognition,9,sansforgetica,attention,word,Probably seen,0.33333333333333337,non-seen,attempt,1816,40,difficult to read,06-03-2019 17:18
461,Pilot,6,yes,Non-designer,1,recognition,10,sansforgetica,imputives,non-word,Sure seen,1,seen,imputives,2000,40,difficult to read,06-03-2019 17:18
462,Pilot,6,yes,Non-designer,1,recognition,11,sansforgetica,counticks,non-word,Sure not seen,0,seen,counticks,2536,40,difficult to read,06-03-2019 17:18
463,Pilot,6,yes,Non-designer,1,recognition,12,sansforgetica,names,word,Probably seen,0.33333333333333337,non-seen,named,2168,40,difficult to read,06-03-2019 17:18
464,Pilot,6,yes,Non-designer,1,recognition,13,sansforgetica,fildle,non-word,Sure seen,1,seen,fildle,3800,40,difficult to read,06-03-2019 17:18
465,Pilot,6,yes,Non-designer,1,recognition,14,sansforgetica,crowd,word,Probably seen,0.33333333333333337,non-seen,cross,1984,40,difficult to read,06-03-2019 17:18
466,Pilot,6,yes,Non-designer,1,recognition,15,sansforgetica,memated,non-word,Sure seen,0,non-seen,memand,2191,40,difficult to read,06-03-2019 17:18
467,Pilot,6,yes,Non-designer,1,recognition,16,sansforgetica,history,word,Probably not seen,0.3333333333333333,seen,history,2232,40,difficult to read,06-03-2019 17:18
468,Pilot,6,yes,Non-designer,2,lexical,1,inputsans,asking,word,Sure word,1,,,2201,36,difficult to read,06-03-2019 17:18
469,Pilot,6,yes,Non-designer,2,lexical,2,inputsans,foilly,non-word,Sure non-word,1,,,1687,36,difficult to read,06-03-2019 17:18
470,Pilot,6,yes,Non-designer,2,lexical,3,inputsans,project,word,Sure word,1,,,1513,36,difficult to read,06-03-2019 17:18
471,Pilot,6,yes,Non-designer,2,lexical,4,inputsans,revernment,non-word,Sure non-word,1,,,2288,36,difficult to read,06-03-2019 17:18
472,Pilot,6,yes,Non-designer,2,lexical,5,inputsans,entervished,non-word,Sure non-word,1,,,1218,36,difficult to read,06-03-2019 17:18
473,Pilot,6,yes,Non-designer,2,lexical,6,inputsans,fairly,word,Sure word,1,,,2301,36,difficult to read,06-03-2019 17:18
474,Pilot,6,yes,Non-designer,2,lexical,7,inputsans,something,word,Sure word,1,,,1423,36,difficult to read,06-03-2019 17:18
475,Pilot,6,yes,Non-designer,2,lexical,8,inputsans,fament,non-word,Sure non-word,1,,,2794,36,difficult to read,06-03-2019 17:18
476,Pilot,6,yes,Non-designer,2,lexical,9,inputsans,brives,non-word,Sure non-word,1,,,3950,36,difficult to read,06-03-2019 17:18
477,Pilot,6,yes,Non-designer,2,lexical,10,inputsans,calls,word,Sure word,1,,,2034,36,difficult to read,06-03-2019 17:18
478,Pilot,6,yes,Non-designer,2,lexical,11,inputsans,holts,non-word,Sure non-word,1,,,2471,36,difficult to read,06-03-2019 17:18
479,Pilot,6,yes,Non-designer,2,lexical,12,inputsans,decision,word,Sure word,1,,,1967,36,difficult to read,06-03-2019 17:18
480,Pilot,6,yes,Non-designer,2,lexical,13,inputsans,polloways,non-word,Sure non-word,1,,,1858,36,difficult to read,06-03-2019 17:18
481,Pilot,6,yes,Non-designer,2,lexical,14,inputsans,contem,non-word,Sure non-word,1,,,1311,36,difficult to read,06-03-2019 17:18
482,Pilot,6,yes,Non-designer,2,lexical,15,inputsans,seriously,word,Sure word,1,,,1656,36,difficult to read,06-03-2019 17:18
483,Pilot,6,yes,Non-designer,2,lexical,16,inputsans,sometimes,word,Sure word,1,,,977,36,difficult to read,06-03-2019 17:18
484,Pilot,6,yes,Non-designer,2,lexical,17,inputsans,amonged,non-word,Sure non-word,1,,,1847,36,difficult to read,06-03-2019 17:18
485,Pilot,6,yes,Non-designer,2,lexical,18,inputsans,restratians,non-word,Sure non-word,1,,,1057,36,difficult to read,06-03-2019 17:18
486,Pilot,6,yes,Non-designer,2,lexical,19,inputsans,attack,word,Sure word,1,,,1920,36,difficult to read,06-03-2019 17:18
487,Pilot,6,yes,Non-designer,2,lexical,20,inputsans,moved,word,Sure word,1,,,1056,36,difficult to read,06-03-2019 17:18
488,Pilot,6,yes,Non-designer,2,recognition,1,inputsans,entervished,non-word,Probably not seen,0.3333333333333333,seen,entervished,5136,36,difficult to read,06-03-2019 17:18
489,Pilot,6,yes,Non-designer,2,recognition,2,inputsans,deeply,word,Probably not seen,0.6666666666666667,non-seen,decision,1440,36,difficult to read,06-03-2019 17:18
490,Pilot,6,yes,Non-designer,2,recognition,3,inputsans,something,word,Sure seen,1,seen,something,1593,36,difficult to read,06-03-2019 17:18
491,Pilot,6,yes,Non-designer,2,recognition,4,inputsans,riddly,non-word,Probably seen,0.33333333333333337,non-seen,revernment,2230,36,difficult to read,06-03-2019 17:18
492,Pilot,6,yes,Non-designer,2,recognition,5,inputsans,holts,non-word,Probably seen,0.6666666666666666,seen,holts,2522,36,difficult to read,06-03-2019 17:18
493,Pilot,6,yes,Non-designer,2,recognition,6,inputsans,restratians,non-word,Sure seen,1,seen,restratians,2319,36,difficult to read,06-03-2019 17:18
494,Pilot,6,yes,Non-designer,2,recognition,7,inputsans,foldness,non-word,Sure not seen,1,non-seen,foilly,2000,36,difficult to read,06-03-2019 17:18
495,Pilot,6,yes,Non-designer,2,recognition,8,inputsans,atmosphere,word,Sure not seen,1,non-seen,attack,2327,36,difficult to read,06-03-2019 17:18
496,Pilot,6,yes,Non-designer,2,recognition,9,inputsans,asking,word,Probably not seen,0.3333333333333333,seen,asking,2393,36,difficult to read,06-03-2019 17:18
497,Pilot,6,yes,Non-designer,2,recognition,10,inputsans,polloways,non-word,Probably seen,0.6666666666666666,seen,polloways,1920,36,difficult to read,06-03-2019 17:18
498,Pilot,6,yes,Non-designer,2,recognition,11,inputsans,anandations,non-word,Probably not seen,0.6666666666666667,non-seen,amonged,3279,36,difficult to read,06-03-2019 17:18
499,Pilot,6,yes,Non-designer,2,recognition,12,inputsans,promised,word,Probably seen,0.33333333333333337,non-seen,project,1641,36,difficult to read,06-03-2019 17:18
500,Pilot,6,yes,Non-designer,2,recognition,13,inputsans,continated,non-word,Probably not seen,0.6666666666666667,non-seen,contem,1952,36,difficult to read,06-03-2019 17:18
501,Pilot,6,yes,Non-designer,2,recognition,14,inputsans,somewhat,word,Probably not seen,0.6666666666666667,non-seen,sometimes,1799,36,difficult to read,06-03-2019 17:18
502,Pilot,6,yes,Non-designer,2,recognition,15,inputsans,seriously,word,Probably seen,0.6666666666666666,seen,seriously,1809,36,difficult to read,06-03-2019 17:18
503,Pilot,6,yes,Non-designer,2,recognition,16,inputsans,moved,word,Probably not seen,0.3333333333333333,seen,moved,4544,36,difficult to read,06-03-2019 17:18
504,Pilot,7,yes,Non-designer,1,lexical,1,sansforgetica,pollowing,non-word,Sure non-word,1,,,5288,60,difficult to read,06-03-2019 17:13
505,Pilot,7,yes,Non-designer,1,lexical,2,sansforgetica,written,word,Sure word,1,,,2201,60,difficult to read,06-03-2019 17:13
506,Pilot,7,yes,Non-designer,1,lexical,3,sansforgetica,change,word,Sure word,1,,,1940,60,difficult to read,06-03-2019 17:13
507,Pilot,7,yes,Non-designer,1,lexical,4,sansforgetica,every,word,Sure word,1,,,1421,60,difficult to read,06-03-2019 17:13
508,Pilot,7,yes,Non-designer,1,lexical,5,sansforgetica,suggers,non-word,Sure non-word,1,,,1856,60,difficult to read,06-03-2019 17:13
509,Pilot,7,yes,Non-designer,1,lexical,6,sansforgetica,undublisted,non-word,Sure non-word,1,,,2407,60,difficult to read,06-03-2019 17:13
510,Pilot,7,yes,Non-designer,1,lexical,7,sansforgetica,sligince,non-word,Sure non-word,1,,,1561,60,difficult to read,06-03-2019 17:13
511,Pilot,7,yes,Non-designer,1,lexical,8,sansforgetica,outside,word,Sure word,1,,,1896,60,difficult to read,06-03-2019 17:13
512,Pilot,7,yes,Non-designer,1,lexical,9,sansforgetica,vegimasion,non-word,Sure non-word,1,,,2256,60,difficult to read,06-03-2019 17:13
513,Pilot,7,yes,Non-designer,1,lexical,10,sansforgetica,sugmaling,non-word,Sure non-word,1,,,1286,60,difficult to read,06-03-2019 17:13
514,Pilot,7,yes,Non-designer,1,lexical,11,sansforgetica,trust,word,Sure word,1,,,1715,60,difficult to read,06-03-2019 17:13
515,Pilot,7,yes,Non-designer,1,lexical,12,sansforgetica,sister,word,Sure word,1,,,1278,60,difficult to read,06-03-2019 17:13
516,Pilot,7,yes,Non-designer,1,lexical,13,sansforgetica,actual,word,Sure word,1,,,969,60,difficult to read,06-03-2019 17:13
517,Pilot,7,yes,Non-designer,1,lexical,14,sansforgetica,implected,non-word,Sure non-word,1,,,1847,60,difficult to read,06-03-2019 17:13
518,Pilot,7,yes,Non-designer,1,lexical,15,sansforgetica,complex,word,Sure word,1,,,1519,60,difficult to read,06-03-2019 17:13
519,Pilot,7,yes,Non-designer,1,lexical,16,sansforgetica,after,word,Sure word,1,,,1056,60,difficult to read,06-03-2019 17:13
520,Pilot,7,yes,Non-designer,1,lexical,17,sansforgetica,starlex,non-word,Sure non-word,1,,,1793,60,difficult to read,06-03-2019 17:13
521,Pilot,7,yes,Non-designer,1,lexical,18,sansforgetica,possecapped,non-word,Sure non-word,1,,,1520,60,difficult to read,06-03-2019 17:13
522,Pilot,7,yes,Non-designer,1,lexical,19,sansforgetica,comes,word,Sure word,1,,,1983,60,difficult to read,06-03-2019 17:13
523,Pilot,7,yes,Non-designer,1,lexical,20,sansforgetica,disruptics,non-word,Sure non-word,1,,,2385,60,difficult to read,06-03-2019 17:13
524,Pilot,7,yes,Non-designer,1,recognition,1,sansforgetica,implected,non-word,Sure seen,1,seen,implected,4207,60,difficult to read,06-03-2019 17:13
525,Pilot,7,yes,Non-designer,1,recognition,2,sansforgetica,pollowing,non-word,Sure seen,1,seen,pollowing,1737,60,difficult to read,06-03-2019 17:13
526,Pilot,7,yes,Non-designer,1,recognition,3,sansforgetica,everybody,word,Sure not seen,1,non-seen,every,2071,60,difficult to read,06-03-2019 17:13
527,Pilot,7,yes,Non-designer,1,recognition,4,sansforgetica,disruptics,non-word,Sure seen,1,seen,disruptics,2841,60,difficult to read,06-03-2019 17:13
528,Pilot,7,yes,Non-designer,1,recognition,5,sansforgetica,actual,word,Probably seen,0.6666666666666666,seen,actual,2487,60,difficult to read,06-03-2019 17:13
529,Pilot,7,yes,Non-designer,1,recognition,6,sansforgetica,wrong,word,Probably not seen,0.6666666666666667,non-seen,written,1927,60,difficult to read,06-03-2019 17:13
530,Pilot,7,yes,Non-designer,1,recognition,7,sansforgetica,comes,word,Probably not seen,0.3333333333333333,seen,comes,1521,60,difficult to read,06-03-2019 17:13
531,Pilot,7,yes,Non-designer,1,recognition,8,sansforgetica,sugoselves,non-word,Probably not seen,0.6666666666666667,non-seen,sugmaling,3424,60,difficult to read,06-03-2019 17:13
532,Pilot,7,yes,Non-designer,1,recognition,9,sansforgetica,possiols,non-word,Probably not seen,0.6666666666666667,non-seen,possecapped,2242,60,difficult to read,06-03-2019 17:13
533,Pilot,7,yes,Non-designer,1,recognition,10,sansforgetica,sister,word,Probably seen,0.6666666666666666,seen,sister,1902,60,difficult to read,06-03-2019 17:13
534,Pilot,7,yes,Non-designer,1,recognition,11,sansforgetica,afternoon,word,Sure not seen,1,non-seen,after,2152,60,difficult to read,06-03-2019 17:13
535,Pilot,7,yes,Non-designer,1,recognition,12,sansforgetica,starned,non-word,Probably not seen,0.6666666666666667,non-seen,starlex,3400,60,difficult to read,06-03-2019 17:13
536,Pilot,7,yes,Non-designer,1,recognition,13,sansforgetica,suggesent,non-word,Probably not seen,0.6666666666666667,non-seen,suggers,1984,60,difficult to read,06-03-2019 17:13
537,Pilot,7,yes,Non-designer,1,recognition,14,sansforgetica,trust,word,Probably not seen,0.3333333333333333,seen,trust,3817,60,difficult to read,06-03-2019 17:13
538,Pilot,7,yes,Non-designer,1,recognition,15,sansforgetica,sligince,non-word,Sure not seen,0,seen,sligince,2543,60,difficult to read,06-03-2019 17:13
539,Pilot,7,yes,Non-designer,1,recognition,16,sansforgetica,computer,word,Probably not seen,0.6666666666666667,non-seen,complex,1928,60,difficult to read,06-03-2019 17:13
540,Pilot,7,yes,Non-designer,2,lexical,1,inputsans,spite,word,Sure word,1,,,2496,54,ok,06-03-2019 17:13
541,Pilot,7,yes,Non-designer,2,lexical,2,inputsans,retter,non-word,Sure non-word,1,,,1657,54,ok,06-03-2019 17:13
542,Pilot,7,yes,Non-designer,2,lexical,3,inputsans,happered,non-word,Sure non-word,1,,,1568,54,ok,06-03-2019 17:13
543,Pilot,7,yes,Non-designer,2,lexical,4,inputsans,toward,word,Sure word,1,,,3000,54,ok,06-03-2019 17:13
544,Pilot,7,yes,Non-designer,2,lexical,5,inputsans,leceived,non-word,Sure non-word,1,,,2305,54,ok,06-03-2019 17:13
545,Pilot,7,yes,Non-designer,2,lexical,6,inputsans,expeatial,non-word,Sure non-word,1,,,1246,54,ok,06-03-2019 17:13
546,Pilot,7,yes,Non-designer,2,lexical,7,inputsans,capable,word,Sure word,1,,,1816,54,ok,06-03-2019 17:13
547,Pilot,7,yes,Non-designer,2,lexical,8,inputsans,frightened,word,Sure word,1,,,896,54,ok,06-03-2019 17:13
548,Pilot,7,yes,Non-designer,2,lexical,9,inputsans,anandations,non-word,Sure non-word,1,,,2864,54,ok,06-03-2019 17:13
549,Pilot,7,yes,Non-designer,2,lexical,10,inputsans,decommental,non-word,Sure non-word,1,,,1127,54,ok,06-03-2019 17:13
550,Pilot,7,yes,Non-designer,2,lexical,11,inputsans,protbation,non-word,Sure non-word,1,,,1800,54,ok,06-03-2019 17:13
551,Pilot,7,yes,Non-designer,2,lexical,12,inputsans,appeal,word,Sure word,1,,,1703,54,ok,06-03-2019 17:13
552,Pilot,7,yes,Non-designer,2,lexical,13,inputsans,covered,word,Sure word,1,,,1192,54,ok,06-03-2019 17:13
553,Pilot,7,yes,Non-designer,2,lexical,14,inputsans,sides,word,Sure word,1,,,1151,54,ok,06-03-2019 17:13
554,Pilot,7,yes,Non-designer,2,lexical,15,inputsans,wituraman,non-word,Sure non-word,1,,,1913,54,ok,06-03-2019 17:13
555,Pilot,7,yes,Non-designer,2,lexical,16,inputsans,mixtured,non-word,Probably non-word,0.6666666666666667,,,3577,54,ok,06-03-2019 17:13
556,Pilot,7,yes,Non-designer,2,lexical,17,inputsans,weapons,word,Sure word,1,,,1631,54,ok,06-03-2019 17:13
557,Pilot,7,yes,Non-designer,2,lexical,18,inputsans,agreement,word,Sure word,1,,,1480,54,ok,06-03-2019 17:13
558,Pilot,7,yes,Non-designer,2,lexical,19,inputsans,choose,word,Sure word,1,,,1113,54,ok,06-03-2019 17:13
559,Pilot,7,yes,Non-designer,2,lexical,20,inputsans,goverpream,non-word,Sure non-word,1,,,1702,54,ok,06-03-2019 17:13
560,Pilot,7,yes,Non-designer,2,recognition,1,inputsans,anandations,non-word,Probably not seen,0.3333333333333333,seen,anandations,2960,54,ok,06-03-2019 17:13
561,Pilot,7,yes,Non-designer,2,recognition,2,inputsans,wituraman,non-word,Sure seen,1,seen,wituraman,2240,54,ok,06-03-2019 17:13
562,Pilot,7,yes,Non-designer,2,recognition,3,inputsans,lecieve,non-word,Probably not seen,0.6666666666666667,non-seen,leceived,2489,54,ok,06-03-2019 17:13
563,Pilot,7,yes,Non-designer,2,recognition,4,inputsans,appeal,word,Probably seen,0.6666666666666666,seen,appeal,1551,54,ok,06-03-2019 17:13
564,Pilot,7,yes,Non-designer,2,recognition,5,inputsans,protbation,non-word,Sure seen,1,seen,protbation,2026,54,ok,06-03-2019 17:13
565,Pilot,7,yes,Non-designer,2,recognition,6,inputsans,expeatious,non-word,Probably not seen,0.6666666666666667,non-seen,expeatial,4622,54,ok,06-03-2019 17:13
566,Pilot,7,yes,Non-designer,2,recognition,7,inputsans,chosen,word,Probably seen,0.33333333333333337,non-seen,choose,1625,54,ok,06-03-2019 17:13
567,Pilot,7,yes,Non-designer,2,recognition,8,inputsans,capacity,word,Probably not seen,0.6666666666666667,non-seen,capable,2279,54,ok,06-03-2019 17:13
568,Pilot,7,yes,Non-designer,2,recognition,9,inputsans,spite,word,Probably not seen,0.3333333333333333,seen,spite,2911,54,ok,06-03-2019 17:13
569,Pilot,7,yes,Non-designer,2,recognition,10,inputsans,revelopment,non-word,Probably not seen,0.6666666666666667,non-seen,retter,2425,54,ok,06-03-2019 17:13
570,Pilot,7,yes,Non-designer,2,recognition,11,inputsans,agreement,word,Probably seen,0.6666666666666666,seen,agreement,1680,54,ok,06-03-2019 17:13
571,Pilot,7,yes,Non-designer,2,recognition,12,inputsans,trade,word,Probably seen,0.33333333333333337,non-seen,toward,1856,54,ok,06-03-2019 17:13
572,Pilot,7,yes,Non-designer,2,recognition,13,inputsans,weapons,word,Probably seen,0.6666666666666666,seen,weapons,1408,54,ok,06-03-2019 17:13
573,Pilot,7,yes,Non-designer,2,recognition,14,inputsans,decommental,non-word,Sure seen,1,seen,decommental,1975,54,ok,06-03-2019 17:13
574,Pilot,7,yes,Non-designer,2,recognition,15,inputsans,happlemas,non-word,Sure not seen,1,non-seen,happered,2130,54,ok,06-03-2019 17:13
575,Pilot,7,yes,Non-designer,2,recognition,16,inputsans,sight,word,Probably seen,0.33333333333333337,non-seen,sides,1679,54,ok,06-03-2019 17:13
576,Pilot,8,yes,Other designer,1,lexical,1,inputsans,branch,word,Sure word,1,,,5983,35,ok,11-02-2019 10:22
577,Pilot,8,yes,Other designer,1,lexical,2,inputsans,principle,word,Sure word,1,,,1568,35,ok,11-02-2019 10:22
578,Pilot,8,yes,Other designer,1,lexical,3,inputsans,neceeducted,non-word,Sure non-word,1,,,5313,35,ok,11-02-2019 10:22
579,Pilot,8,yes,Other designer,1,lexical,4,inputsans,venerweared,non-word,Sure non-word,1,,,3957,35,ok,11-02-2019 10:22
580,Pilot,8,yes,Other designer,1,lexical,5,inputsans,allond,non-word,Sure non-word,1,,,5545,35,ok,11-02-2019 10:22
581,Pilot,8,yes,Other designer,1,lexical,6,inputsans,infantics,non-word,Probably word,0.33333333333333337,,,4066,35,ok,11-02-2019 10:22
582,Pilot,8,yes,Other designer,1,lexical,7,inputsans,coffee,word,Sure word,1,,,1753,35,ok,11-02-2019 10:22
583,Pilot,8,yes,Other designer,1,lexical,8,inputsans,explitition,non-word,Probably word,0.33333333333333337,,,6241,35,ok,11-02-2019 10:22
584,Pilot,8,yes,Other designer,1,lexical,9,inputsans,distery,non-word,Probably non-word,0.6666666666666667,,,5601,35,ok,11-02-2019 10:22
585,Pilot,8,yes,Other designer,1,lexical,10,inputsans,whose,word,Sure word,1,,,1940,35,ok,11-02-2019 10:22
586,Pilot,8,yes,Other designer,1,lexical,11,inputsans,regular,word,Sure word,1,,,1334,35,ok,11-02-2019 10:22
587,Pilot,8,yes,Other designer,1,lexical,12,inputsans,association,word,Sure word,1,,,2007,35,ok,11-02-2019 10:22
588,Pilot,8,yes,Other designer,1,lexical,13,inputsans,setting,word,Sure word,1,,,1224,35,ok,11-02-2019 10:22
589,Pilot,8,yes,Other designer,1,lexical,14,inputsans,might,word,Sure word,1,,,1230,35,ok,11-02-2019 10:22
590,Pilot,8,yes,Other designer,1,lexical,15,inputsans,conferation,non-word,Probably non-word,0.6666666666666667,,,6509,35,ok,11-02-2019 10:22
591,Pilot,8,yes,Other designer,1,lexical,16,inputsans,experience,word,Sure word,1,,,1896,35,ok,11-02-2019 10:22
592,Pilot,8,yes,Other designer,1,lexical,17,inputsans,uncregately,non-word,Sure non-word,1,,,2909,35,ok,11-02-2019 10:22
593,Pilot,8,yes,Other designer,1,lexical,18,inputsans,mandersion,non-word,Sure non-word,1,,,2240,35,ok,11-02-2019 10:22
594,Pilot,8,yes,Other designer,1,lexical,19,inputsans,carturences,non-word,Sure non-word,1,,,3369,35,ok,11-02-2019 10:22
595,Pilot,8,yes,Other designer,1,lexical,20,inputsans,first,word,Sure word,1,,,1952,35,ok,11-02-2019 10:22
596,Pilot,8,yes,Other designer,1,recognition,1,inputsans,neceeducted,non-word,Probably seen,0.6666666666666666,seen,,7625,35,ok,11-02-2019 10:22
597,Pilot,8,yes,Other designer,1,recognition,2,inputsans,might,word,Sure seen,1,seen,,1851,35,ok,11-02-2019 10:22
598,Pilot,8,yes,Other designer,1,recognition,3,inputsans,reported,word,Sure not seen,1,non-seen,regular,6535,35,ok,11-02-2019 10:22
599,Pilot,8,yes,Other designer,1,recognition,4,inputsans,driftion,non-word,Sure not seen,1,non-seen,distery,3095,35,ok,11-02-2019 10:22
600,Pilot,8,yes,Other designer,1,recognition,5,inputsans,forms,word,Probably not seen,0.6666666666666667,non-seen,first,4608,35,ok,11-02-2019 10:22
601,Pilot,8,yes,Other designer,1,recognition,6,inputsans,principle,word,Sure seen,1,seen,,2155,35,ok,11-02-2019 10:22
602,Pilot,8,yes,Other designer,1,recognition,7,inputsans,chaped,non-word,Sure not seen,1,non-seen,carturences,2981,35,ok,11-02-2019 10:22
603,Pilot,8,yes,Other designer,1,recognition,8,inputsans,infantics,non-word,Sure seen,1,seen,,2177,35,ok,11-02-2019 10:22
604,Pilot,8,yes,Other designer,1,recognition,9,inputsans,conferation,non-word,Sure seen,1,seen,,1602,35,ok,11-02-2019 10:22
605,Pilot,8,yes,Other designer,1,recognition,10,inputsans,agaim,non-word,Sure not seen,1,non-seen,allond,2672,35,ok,11-02-2019 10:22
606,Pilot,8,yes,Other designer,1,recognition,11,inputsans,effect,word,Sure not seen,1,non-seen,experience,2184,35,ok,11-02-2019 10:22
607,Pilot,8,yes,Other designer,1,recognition,12,inputsans,venerweared,non-word,Sure seen,1,seen,,3164,35,ok,11-02-2019 10:22
608,Pilot,8,yes,Other designer,1,recognition,13,inputsans,branch,word,Sure seen,1,seen,,1517,35,ok,11-02-2019 10:22
609,Pilot,8,yes,Other designer,1,recognition,14,inputsans,setting,word,Probably seen,0.6666666666666666,seen,,3273,35,ok,11-02-2019 10:22
610,Pilot,8,yes,Other designer,1,recognition,15,inputsans,espernence,non-word,Probably seen,0.33333333333333337,non-seen,explitition,10589,35,ok,11-02-2019 10:22
611,Pilot,8,yes,Other designer,1,recognition,16,inputsans,actions,word,Sure not seen,1,non-seen,association,2497,35,ok,11-02-2019 10:22
612,Pilot,8,yes,Other designer,2,lexical,1,sansforgetica,music,word,Sure word,1,,,6392,30,easy to read,11-02-2019 10:22
613,Pilot,8,yes,Other designer,2,lexical,2,sansforgetica,minest,non-word,Sure non-word,1,,,6637,30,easy to read,11-02-2019 10:22
614,Pilot,8,yes,Other designer,2,lexical,3,sansforgetica,undonestes,non-word,Sure non-word,1,,,2147,30,easy to read,11-02-2019 10:22
615,Pilot,8,yes,Other designer,2,lexical,4,sansforgetica,deparations,non-word,Probably non-word,0.6666666666666667,,,4410,30,easy to read,11-02-2019 10:22
616,Pilot,8,yes,Other designer,2,lexical,5,sansforgetica,batchdour,non-word,Sure non-word,1,,,4628,30,easy to read,11-02-2019 10:22
617,Pilot,8,yes,Other designer,2,lexical,6,sansforgetica,deterienth,non-word,Sure non-word,1,,,3667,30,easy to read,11-02-2019 10:22
618,Pilot,8,yes,Other designer,2,lexical,7,sansforgetica,famous,word,Sure word,1,,,2062,30,easy to read,11-02-2019 10:22
619,Pilot,8,yes,Other designer,2,lexical,8,sansforgetica,aware,word,Sure word,1,,,1462,30,easy to read,11-02-2019 10:22
620,Pilot,8,yes,Other designer,2,lexical,9,sansforgetica,steet,non-word,Probably non-word,0.6666666666666667,,,4141,30,easy to read,11-02-2019 10:22
621,Pilot,8,yes,Other designer,2,lexical,10,sansforgetica,feepped,non-word,Sure non-word,1,,,2461,30,easy to read,11-02-2019 10:22
622,Pilot,8,yes,Other designer,2,lexical,11,sansforgetica,finally,word,Sure word,1,,,2156,30,easy to read,11-02-2019 10:22
623,Pilot,8,yes,Other designer,2,lexical,12,sansforgetica,below,word,Sure word,1,,,1584,30,easy to read,11-02-2019 10:22
624,Pilot,8,yes,Other designer,2,lexical,13,sansforgetica,pounds,word,Sure word,1,,,1531,30,easy to read,11-02-2019 10:22
625,Pilot,8,yes,Other designer,2,lexical,14,sansforgetica,cittes,non-word,Probably non-word,0.6666666666666667,,,7121,30,easy to read,11-02-2019 10:22
626,Pilot,8,yes,Other designer,2,lexical,15,sansforgetica,wrote,word,Sure word,1,,,2237,30,easy to read,11-02-2019 10:22
627,Pilot,8,yes,Other designer,2,lexical,16,sansforgetica,syster,non-word,Probably word,0.33333333333333337,,,6403,30,easy to read,11-02-2019 10:22
628,Pilot,8,yes,Other designer,2,lexical,17,sansforgetica,rather,word,Sure word,1,,,4711,30,easy to read,11-02-2019 10:22
629,Pilot,8,yes,Other designer,2,lexical,18,sansforgetica,communist,word,Sure word,1,,,2535,30,easy to read,11-02-2019 10:22
630,Pilot,8,yes,Other designer,2,lexical,19,sansforgetica,removed,word,Sure word,1,,,1495,30,easy to read,11-02-2019 10:22
631,Pilot,8,yes,Other designer,2,lexical,20,sansforgetica,polinize,non-word,Sure word,0,,,4582,30,easy to read,11-02-2019 10:22
632,Pilot,8,yes,Other designer,2,recognition,1,sansforgetica,deterienth,non-word,Probably seen,0.6666666666666666,seen,,5267,30,easy to read,11-02-2019 10:22
633,Pilot,8,yes,Other designer,2,recognition,2,sansforgetica,activities,word,Probably not seen,0.6666666666666667,non-seen,aware,9184,30,easy to read,11-02-2019 10:22
634,Pilot,8,yes,Other designer,2,recognition,3,sansforgetica,caparetter,non-word,Probably not seen,0.6666666666666667,non-seen,cittes,3371,30,easy to read,11-02-2019 10:22
635,Pilot,8,yes,Other designer,2,recognition,4,sansforgetica,famous,word,Sure seen,1,seen,,2367,30,easy to read,11-02-2019 10:22
636,Pilot,8,yes,Other designer,2,recognition,5,sansforgetica,plain,word,Sure not seen,1,non-seen,pounds,2188,30,easy to read,11-02-2019 10:22
637,Pilot,8,yes,Other designer,2,recognition,6,sansforgetica,succuader,non-word,Sure not seen,1,non-seen,steet,2546,30,easy to read,11-02-2019 10:22
638,Pilot,8,yes,Other designer,2,recognition,7,sansforgetica,batchdour,non-word,Sure seen,1,seen,,2627,30,easy to read,11-02-2019 10:22
639,Pilot,8,yes,Other designer,2,recognition,8,sansforgetica,starge,non-word,Sure not seen,1,non-seen,syster,2231,30,easy to read,11-02-2019 10:22
640,Pilot,8,yes,Other designer,2,recognition,9,sansforgetica,below,word,Sure not seen,0,seen,,2648,30,easy to read,11-02-2019 10:22
641,Pilot,8,yes,Other designer,2,recognition,10,sansforgetica,matitary,non-word,Sure not seen,1,non-seen,minest,2849,30,easy to read,11-02-2019 10:22
642,Pilot,8,yes,Other designer,2,recognition,11,sansforgetica,catch,word,Sure not seen,1,non-seen,communist,1399,30,easy to read,11-02-2019 10:22
643,Pilot,8,yes,Other designer,2,recognition,12,sansforgetica,removed,word,Probably not seen,0.3333333333333333,seen,,3625,30,easy to read,11-02-2019 10:22
644,Pilot,8,yes,Other designer,2,recognition,13,sansforgetica,feepped,non-word,Sure not seen,0,seen,,1897,30,easy to read,11-02-2019 10:22
645,Pilot,8,yes,Other designer,2,recognition,14,sansforgetica,while,word,Probably not seen,0.6666666666666667,non-seen,wrote,2462,30,easy to read,11-02-2019 10:22
646,Pilot,8,yes,Other designer,2,recognition,15,sansforgetica,deparations,non-word,Sure seen,1,seen,,2777,30,easy to read,11-02-2019 10:22
647,Pilot,8,yes,Other designer,2,recognition,16,sansforgetica,finally,word,Sure seen,1,seen,,1722,30,easy to read,11-02-2019 10:22
648,Pilot,9,yes,Non-designer,1,lexical,1,sansforgetica,states,word,Sure word,1,,,3425,60,very difficult to read,07-02-2019 18:14
649,Pilot,9,yes,Non-designer,1,lexical,2,sansforgetica,hamething,non-word,Sure non-word,1,,,2297,60,very difficult to read,07-02-2019 18:14
650,Pilot,9,yes,Non-designer,1,lexical,3,sansforgetica,giving,word,Sure word,1,,,1599,60,very difficult to read,07-02-2019 18:14
651,Pilot,9,yes,Non-designer,1,lexical,4,sansforgetica,plastic,word,Sure word,1,,,1393,60,very difficult to read,07-02-2019 18:14
652,Pilot,9,yes,Non-designer,1,lexical,5,sansforgetica,after,word,Sure word,1,,,1431,60,very difficult to read,07-02-2019 18:14
653,Pilot,9,yes,Non-designer,1,lexical,6,sansforgetica,curonoms,non-word,Sure non-word,1,,,3055,60,very difficult to read,07-02-2019 18:14
654,Pilot,9,yes,Non-designer,1,lexical,7,sansforgetica,politics,word,Sure word,1,,,1779,60,very difficult to read,07-02-2019 18:14
655,Pilot,9,yes,Non-designer,1,lexical,8,sansforgetica,improprians,non-word,Sure non-word,1,,,2209,60,very difficult to read,07-02-2019 18:14
656,Pilot,9,yes,Non-designer,1,lexical,9,sansforgetica,potervies,non-word,Sure non-word,1,,,1721,60,very difficult to read,07-02-2019 18:14
657,Pilot,9,yes,Non-designer,1,lexical,10,sansforgetica,taste,word,Sure word,1,,,1671,60,very difficult to read,07-02-2019 18:14
658,Pilot,9,yes,Non-designer,1,lexical,11,sansforgetica,first,word,Sure word,1,,,1017,60,very difficult to read,07-02-2019 18:14
659,Pilot,9,yes,Non-designer,1,lexical,12,sansforgetica,addicaches,non-word,Sure non-word,1,,,1905,60,very difficult to read,07-02-2019 18:14
660,Pilot,9,yes,Non-designer,1,lexical,13,sansforgetica,frantage,non-word,Sure non-word,1,,,1278,60,very difficult to read,07-02-2019 18:14
661,Pilot,9,yes,Non-designer,1,lexical,14,sansforgetica,brought,word,Sure word,1,,,2161,60,very difficult to read,07-02-2019 18:14
662,Pilot,9,yes,Non-designer,1,lexical,15,sansforgetica,exprinuous,non-word,Sure non-word,1,,,1919,60,very difficult to read,07-02-2019 18:14
663,Pilot,9,yes,Non-designer,1,lexical,16,sansforgetica,conscioning,non-word,Sure non-word,1,,,1444,60,very difficult to read,07-02-2019 18:14
664,Pilot,9,yes,Non-designer,1,lexical,17,sansforgetica,govelesses,non-word,Sure non-word,1,,,1877,60,very difficult to read,07-02-2019 18:14
665,Pilot,9,yes,Non-designer,1,lexical,18,sansforgetica,sector,word,Sure word,1,,,1576,60,very difficult to read,07-02-2019 18:14
666,Pilot,9,yes,Non-designer,1,lexical,19,sansforgetica,pasis,non-word,Sure non-word,1,,,1775,60,very difficult to read,07-02-2019 18:14
667,Pilot,9,yes,Non-designer,1,lexical,20,sansforgetica,sudden,word,Sure word,1,,,1752,60,very difficult to read,07-02-2019 18:14
668,Pilot,9,yes,Non-designer,1,recognition,1,sansforgetica,sector,word,Probably seen,0.6666666666666666,seen,,2721,60,very difficult to read,07-02-2019 18:14
669,Pilot,9,yes,Non-designer,1,recognition,2,sansforgetica,brought,word,Sure seen,1,seen,,1527,60,very difficult to read,07-02-2019 18:14
670,Pilot,9,yes,Non-designer,1,recognition,3,sansforgetica,cheir,non-word,Probably not seen,0.6666666666666667,non-seen,curonoms,3727,60,very difficult to read,07-02-2019 18:14
671,Pilot,9,yes,Non-designer,1,recognition,4,sansforgetica,presence,word,Probably seen,0.33333333333333337,non-seen,politics,1744,60,very difficult to read,07-02-2019 18:14
672,Pilot,9,yes,Non-designer,1,recognition,5,sansforgetica,experession,non-word,Probably not seen,0.6666666666666667,non-seen,exprinuous,2673,60,very difficult to read,07-02-2019 18:14
673,Pilot,9,yes,Non-designer,1,recognition,6,sansforgetica,giving,word,Probably seen,0.6666666666666666,seen,,1695,60,very difficult to read,07-02-2019 18:14
674,Pilot,9,yes,Non-designer,1,recognition,7,sansforgetica,appeal,word,Probably not seen,0.6666666666666667,non-seen,after,2352,60,very difficult to read,07-02-2019 18:14
675,Pilot,9,yes,Non-designer,1,recognition,8,sansforgetica,plastic,word,Probably not seen,0.3333333333333333,seen,,2217,60,very difficult to read,07-02-2019 18:14
676,Pilot,9,yes,Non-designer,1,recognition,9,sansforgetica,field,word,Probably not seen,0.6666666666666667,non-seen,first,1687,60,very difficult to read,07-02-2019 18:14
677,Pilot,9,yes,Non-designer,1,recognition,10,sansforgetica,grattered,non-word,Sure not seen,1,non-seen,govelesses,3471,60,very difficult to read,07-02-2019 18:14
678,Pilot,9,yes,Non-designer,1,recognition,11,sansforgetica,pasis,non-word,Probably seen,0.6666666666666666,seen,,3247,60,very difficult to read,07-02-2019 18:14
679,Pilot,9,yes,Non-designer,1,recognition,12,sansforgetica,potervies,non-word,Probably seen,0.6666666666666666,seen,,1834,60,very difficult to read,07-02-2019 18:14
680,Pilot,9,yes,Non-designer,1,recognition,13,sansforgetica,frantage,non-word,Probably not seen,0.3333333333333333,seen,,2750,60,very difficult to read,07-02-2019 18:14
681,Pilot,9,yes,Non-designer,1,recognition,14,sansforgetica,themselves,word,Sure not seen,1,non-seen,taste,1888,60,very difficult to read,07-02-2019 18:14
682,Pilot,9,yes,Non-designer,1,recognition,15,sansforgetica,compution,non-word,Probably not seen,0.6666666666666667,non-seen,conscioning,1945,60,very difficult to read,07-02-2019 18:14
683,Pilot,9,yes,Non-designer,1,recognition,16,sansforgetica,hamething,non-word,Probably seen,0.6666666666666666,seen,,2207,60,very difficult to read,07-02-2019 18:14
684,Pilot,9,yes,Non-designer,2,lexical,1,inputsans,bridge,word,Sure word,1,,,2377,45,very easy to read,07-02-2019 18:14
685,Pilot,9,yes,Non-designer,2,lexical,2,inputsans,amasped,non-word,Sure non-word,1,,,2168,45,very easy to read,07-02-2019 18:14
686,Pilot,9,yes,Non-designer,2,lexical,3,inputsans,father,word,Sure word,1,,,2073,45,very easy to read,07-02-2019 18:14
687,Pilot,9,yes,Non-designer,2,lexical,4,inputsans,audience,word,Sure word,1,,,2416,45,very easy to read,07-02-2019 18:14
688,Pilot,9,yes,Non-designer,2,lexical,5,inputsans,esserwing,non-word,Sure non-word,1,,,2442,45,very easy to read,07-02-2019 18:14
689,Pilot,9,yes,Non-designer,2,lexical,6,inputsans,issue,word,Sure word,1,,,2501,45,very easy to read,07-02-2019 18:14
690,Pilot,9,yes,Non-designer,2,lexical,7,inputsans,patcher,non-word,Sure non-word,1,,,2617,45,very easy to read,07-02-2019 18:14
691,Pilot,9,yes,Non-designer,2,lexical,8,inputsans,surcenters,non-word,Sure non-word,1,,,2519,45,very easy to read,07-02-2019 18:14
692,Pilot,9,yes,Non-designer,2,lexical,9,inputsans,morence,non-word,Sure non-word,1,,,2304,45,very easy to read,07-02-2019 18:14
693,Pilot,9,yes,Non-designer,2,lexical,10,inputsans,previous,word,Sure word,1,,,1888,45,very easy to read,07-02-2019 18:14
694,Pilot,9,yes,Non-designer,2,lexical,11,inputsans,social,word,Sure word,1,,,1248,45,very easy to read,07-02-2019 18:14
695,Pilot,9,yes,Non-designer,2,lexical,12,inputsans,authorities,word,Sure word,1,,,2625,45,very easy to read,07-02-2019 18:14
696,Pilot,9,yes,Non-designer,2,lexical,13,inputsans,dinded,non-word,Sure non-word,1,,,2439,45,very easy to read,07-02-2019 18:14
697,Pilot,9,yes,Non-designer,2,lexical,14,inputsans,distance,word,Sure word,1,,,1784,45,very easy to read,07-02-2019 18:14
698,Pilot,9,yes,Non-designer,2,lexical,15,inputsans,drojects,non-word,Sure non-word,1,,,2191,45,very easy to read,07-02-2019 18:14
699,Pilot,9,yes,Non-designer,2,lexical,16,inputsans,ninished,non-word,Sure non-word,1,,,1776,45,very easy to read,07-02-2019 18:14
700,Pilot,9,yes,Non-designer,2,lexical,17,inputsans,thinking,word,Sure word,1,,,1960,45,very easy to read,07-02-2019 18:14
701,Pilot,9,yes,Non-designer,2,lexical,18,inputsans,claygrable,non-word,Sure non-word,1,,,2170,45,very easy to read,07-02-2019 18:14
702,Pilot,9,yes,Non-designer,2,lexical,19,inputsans,belief,word,Sure word,1,,,1695,45,very easy to read,07-02-2019 18:14
703,Pilot,9,yes,Non-designer,2,lexical,20,inputsans,succerdly,non-word,Sure non-word,1,,,1847,45,very easy to read,07-02-2019 18:14
704,Pilot,9,yes,Non-designer,2,recognition,1,inputsans,areas,word,Sure not seen,1,non-seen,authorities,2527,45,very easy to read,07-02-2019 18:14
705,Pilot,9,yes,Non-designer,2,recognition,2,inputsans,thinking,word,Probably not seen,0.3333333333333333,seen,,3009,45,very easy to read,07-02-2019 18:14
706,Pilot,9,yes,Non-designer,2,recognition,3,inputsans,social,word,Sure seen,1,seen,,2007,45,very easy to read,07-02-2019 18:14
707,Pilot,9,yes,Non-designer,2,recognition,4,inputsans,expeat,non-word,Sure not seen,1,non-seen,esserwing,2089,45,very easy to read,07-02-2019 18:14
708,Pilot,9,yes,Non-designer,2,recognition,5,inputsans,absolutely,word,Probably seen,0.33333333333333337,non-seen,audience,1833,45,very easy to read,07-02-2019 18:14
709,Pilot,9,yes,Non-designer,2,recognition,6,inputsans,distance,word,Probably seen,0.6666666666666666,seen,,1463,45,very easy to read,07-02-2019 18:14
710,Pilot,9,yes,Non-designer,2,recognition,7,inputsans,aggreciled,non-word,Sure not seen,1,non-seen,amasped,2759,45,very easy to read,07-02-2019 18:14
711,Pilot,9,yes,Non-designer,2,recognition,8,inputsans,patcher,non-word,Probably seen,0.6666666666666666,seen,,3376,45,very easy to read,07-02-2019 18:14
712,Pilot,9,yes,Non-designer,2,recognition,9,inputsans,decommental,non-word,Probably not seen,0.6666666666666667,non-seen,dinded,1960,45,very easy to read,07-02-2019 18:14
713,Pilot,9,yes,Non-designer,2,recognition,10,inputsans,follow,word,Probably seen,0.33333333333333337,non-seen,father,1879,45,very easy to read,07-02-2019 18:14
714,Pilot,9,yes,Non-designer,2,recognition,11,inputsans,parliament,word,Sure not seen,1,non-seen,previous,1745,45,very easy to read,07-02-2019 18:14
715,Pilot,9,yes,Non-designer,2,recognition,12,inputsans,morence,non-word,Probably not seen,0.3333333333333333,seen,,1784,45,very easy to read,07-02-2019 18:14
716,Pilot,9,yes,Non-designer,2,recognition,13,inputsans,coods,non-word,Sure not seen,1,non-seen,claygrable,2176,45,very easy to read,07-02-2019 18:14
717,Pilot,9,yes,Non-designer,2,recognition,14,inputsans,drojects,non-word,Probably seen,0.6666666666666666,seen,,2504,45,very easy to read,07-02-2019 18:14
718,Pilot,9,yes,Non-designer,2,recognition,15,inputsans,bridge,word,Probably not seen,0.3333333333333333,seen,,2247,45,very easy to read,07-02-2019 18:14
719,Pilot,9,yes,Non-designer,2,recognition,16,inputsans,succerdly,non-word,Probably seen,0.6666666666666666,seen,,3025,45,very easy to read,07-02-2019 18:14
720,Pilot,10,yes,Other designer,1,lexical,1,inputsans,called,word,Sure word,1,,,1616,62,very easy to read,05-02-2019 20:36
721,Pilot,10,yes,Other designer,1,lexical,2,inputsans,lanistic,non-word,Probably non-word,0.6666666666666667,,,1920,62,very easy to read,05-02-2019 20:36
722,Pilot,10,yes,Other designer,1,lexical,3,inputsans,country,word,Sure word,1,,,1522,62,very easy to read,05-02-2019 20:36
723,Pilot,10,yes,Other designer,1,lexical,4,inputsans,sollaren,non-word,Sure non-word,1,,,1803,62,very easy to read,05-02-2019 20:36
