,StudyID,ParticipantID,Fluent,Training,TestID,Type,TrialID,Font,Sample,Category,Response,Correct,Seen,Foil,RT,RTnorm,JoM,JoL,Date
0,1,0,False,Non-designer,1,lexical,1,arial,reclapian,non-word,Probably non-word,1.0,,,11339.0,9.33600338997184,1,easy to read,30-04-2019 19:06
1,1,0,False,Non-designer,1,lexical,2,arial,seemed,word,Probably non-word,0.0,,,13517.0,9.511703431483827,1,easy to read,30-04-2019 19:06
2,1,0,False,Non-designer,1,lexical,3,arial,eviderood,non-word,Probably non-word,1.0,,,3175.0,8.063062911326792,1,easy to read,30-04-2019 19:06
3,1,0,False,Non-designer,1,lexical,4,arial,discomision,non-word,Probably word,0.0,,,4253.0,8.355379895253634,1,easy to read,30-04-2019 19:06
4,1,0,False,Non-designer,1,lexical,5,arial,wationation,non-word,Probably non-word,1.0,,,6745.0,8.816556768641856,1,easy to read,30-04-2019 19:06
5,1,0,False,Non-designer,1,lexical,6,arial,refectuning,non-word,Probably non-word,1.0,,,6007.0,8.700680734850161,1,easy to read,30-04-2019 19:06
6,1,0,False,Non-designer,1,lexical,7,arial,whole,word,Probably word,1.0,,,3119.0,8.045267716607803,1,easy to read,30-04-2019 19:06
7,1,0,False,Non-designer,1,lexical,8,arial,master,word,Sure word,1.0,,,3192.0,8.068402958569699,1,easy to read,30-04-2019 19:06
8,1,0,False,Non-designer,1,lexical,9,arial,potential,word,Sure word,1.0,,,13325.0,9.497397249034046,1,easy to read,30-04-2019 19:06
9,1,0,False,Non-designer,1,lexical,10,arial,north,word,Sure word,1.0,,,4997.0,8.516593011344206,1,easy to read,30-04-2019 19:06
10,1,0,False,Non-designer,1,lexical,11,arial,descussed,non-word,Probably word,0.0,,,7917.0,8.976767625171433,1,easy to read,30-04-2019 19:06
11,1,0,False,Non-designer,1,lexical,12,arial,pritain,non-word,Probably non-word,1.0,,,8268.0,9.020147920801659,1,easy to read,30-04-2019 19:06
12,1,0,False,Non-designer,1,lexical,13,arial,relatively,word,Probably word,1.0,,,4661.0,8.446985296372741,1,easy to read,30-04-2019 19:06
13,1,0,False,Non-designer,1,lexical,14,arial,college,word,Sure word,1.0,,,9905.0,9.20079495913265,1,easy to read,30-04-2019 19:06
14,1,0,False,Non-designer,1,lexical,15,arial,housing,word,Sure word,1.0,,,6335.0,8.75384509275524,1,easy to read,30-04-2019 19:06
15,1,0,False,Non-designer,1,lexical,16,arial,upbelf,non-word,Probably word,0.0,,,3306.0,8.10349427838097,1,easy to read,30-04-2019 19:06
16,1,0,False,Non-designer,1,lexical,17,arial,increasion,non-word,Probably word,0.0,,,2843.0,7.952615111651,1,easy to read,30-04-2019 19:06
17,1,0,False,Non-designer,1,lexical,18,arial,large,word,Sure word,1.0,,,2850.0,7.955074273262696,1,easy to read,30-04-2019 19:06
18,1,0,False,Non-designer,1,lexical,19,arial,maybe,word,Sure word,1.0,,,4807.0,8.47782846789396,1,easy to read,30-04-2019 19:06
19,1,0,False,Non-designer,1,lexical,20,arial,corspention,non-word,Probably word,0.0,,,6276.0,8.744488113852924,1,easy to read,30-04-2019 19:06
20,1,0,False,Non-designer,1,recognition,1,arial,north,word,Sure seen,1.0,seen,north,8533.0,9.051696278536586,1,easy to read,30-04-2019 19:06
21,1,0,False,Non-designer,1,recognition,2,arial,recoughous,non-word,Probably seen,0.0,not seen,reclapian,3706.0,8.217708406845306,1,easy to read,30-04-2019 19:06
22,1,0,False,Non-designer,1,recognition,3,arial,sense,word,Sure not seen,1.0,not seen,seemed,4478.0,8.4069317971587,1,easy to read,30-04-2019 19:06
23,1,0,False,Non-designer,1,recognition,4,arial,refectuning,non-word,Sure seen,1.0,seen,refectuning,5268.0,8.569406062863171,1,easy to read,30-04-2019 19:06
24,1,0,False,Non-designer,1,recognition,5,arial,descussed,non-word,Sure seen,1.0,seen,descussed,2769.0,7.926241523170962,1,easy to read,30-04-2019 19:06
25,1,0,False,Non-designer,1,recognition,6,arial,housing,word,Sure seen,1.0,seen,housing,1162.0,7.057897937411856,1,easy to read,30-04-2019 19:06
26,1,0,False,Non-designer,1,recognition,7,arial,upties,non-word,Sure not seen,1.0,not seen,upbelf,3583.0,8.183955717304954,1,easy to read,30-04-2019 19:06
27,1,0,False,Non-designer,1,recognition,8,arial,discomision,non-word,Probably seen,1.0,seen,discomision,2764.0,7.92443418488756,1,easy to read,30-04-2019 19:06
28,1,0,False,Non-designer,1,recognition,9,arial,match,word,Sure not seen,1.0,not seen,master,2635.0,7.876638460975463,1,easy to read,30-04-2019 19:06
29,1,0,False,Non-designer,1,recognition,10,arial,colonel,word,Probably not seen,1.0,not seen,college,4465.0,8.4040244933106,1,easy to read,30-04-2019 19:06
30,1,0,False,Non-designer,1,recognition,11,arial,largely,word,Sure not seen,1.0,not seen,large,3505.0,8.16194579946869,1,easy to read,30-04-2019 19:06
31,1,0,False,Non-designer,1,recognition,12,arial,wationation,non-word,Sure not seen,0.0,seen,wationation,5216.0,8.559486103606488,1,easy to read,30-04-2019 19:06
32,1,0,False,Non-designer,1,recognition,13,arial,exaggetent,non-word,Sure not seen,1.0,not seen,eviderood,2564.0,7.849323818040561,1,easy to read,30-04-2019 19:06
33,1,0,False,Non-designer,1,recognition,14,arial,couled,non-word,Sure not seen,1.0,not seen,corspention,2851.0,7.955425088912672,1,easy to read,30-04-2019 19:06
34,1,0,False,Non-designer,1,recognition,15,arial,relatively,word,Probably seen,1.0,seen,relatively,3448.0,8.145549631783584,1,easy to read,30-04-2019 19:06
35,1,0,False,Non-designer,1,recognition,16,arial,maybe,word,Sure seen,1.0,seen,maybe,1501.0,7.313886831633462,1,easy to read,30-04-2019 19:06
36,1,0,False,Non-designer,2,lexical,1,sansforgetica,words,word,Sure word,1.0,,,10287.0,9.23863624113103,7,difficult to read,30-04-2019 19:06
37,1,0,False,Non-designer,2,lexical,2,sansforgetica,hysturably,non-word,Probably word,0.0,,,3709.0,8.21851757748959,7,difficult to read,30-04-2019 19:06
38,1,0,False,Non-designer,2,lexical,3,sansforgetica,condamenced,non-word,Probably word,0.0,,,4437.0,8.39773375137891,7,difficult to read,30-04-2019 19:06
39,1,0,False,Non-designer,2,lexical,4,sansforgetica,fight,word,Sure word,1.0,,,2206.0,7.698936199813447,7,difficult to read,30-04-2019 19:06
40,1,0,False,Non-designer,2,lexical,5,sansforgetica,necessary,word,Sure word,1.0,,,2963.0,7.993957547573565,7,difficult to read,30-04-2019 19:06
41,1,0,False,Non-designer,2,lexical,6,sansforgetica,forget,word,Sure word,1.0,,,3125.0,8.047189562170502,7,difficult to read,30-04-2019 19:06
42,1,0,False,Non-designer,2,lexical,7,sansforgetica,breakfast,word,Sure word,1.0,,,6205.0,8.733110697638708,7,difficult to read,30-04-2019 19:06
43,1,0,False,Non-designer,2,lexical,8,sansforgetica,minalry,non-word,Probably word,0.0,,,6799.0,8.82453082152646,7,difficult to read,30-04-2019 19:06
44,1,0,False,Non-designer,2,lexical,9,sansforgetica,lithin,non-word,Sure word,0.0,,,3158.0,8.057694194815587,7,difficult to read,30-04-2019 19:06
45,1,0,False,Non-designer,2,lexical,10,sansforgetica,empefic,non-word,Probably non-word,1.0,,,5412.0,8.59637398929068,7,difficult to read,30-04-2019 19:06
46,1,0,False,Non-designer,2,lexical,11,sansforgetica,thrughts,non-word,Probably non-word,1.0,,,3834.0,8.251663923605589,7,difficult to read,30-04-2019 19:06
47,1,0,False,Non-designer,2,lexical,12,sansforgetica,civil,word,Sure word,1.0,,,2148.0,7.672292455628756,7,difficult to read,30-04-2019 19:06
48,1,0,False,Non-designer,2,lexical,13,sansforgetica,spite,word,Sure word,1.0,,,1865.0,7.5310163320779155,7,difficult to read,30-04-2019 19:06
49,1,0,False,Non-designer,2,lexical,14,sansforgetica,create,word,Sure word,1.0,,,1583.0,7.367077059881012,7,difficult to read,30-04-2019 19:06
50,1,0,False,Non-designer,2,lexical,15,sansforgetica,babies,word,Sure word,1.0,,,3537.0,8.17103418920548,7,difficult to read,30-04-2019 19:06
51,1,0,False,Non-designer,2,lexical,16,sansforgetica,penerer,non-word,Probably non-word,1.0,,,3034.0,8.017637159908478,7,difficult to read,30-04-2019 19:06
52,1,0,False,Non-designer,2,lexical,17,sansforgetica,trevation,non-word,Probably non-word,1.0,,,2598.0,7.862497197230545,7,difficult to read,30-04-2019 19:06
53,1,0,False,Non-designer,2,lexical,18,sansforgetica,valeamer,non-word,Probably non-word,1.0,,,3204.0,8.07215530818825,7,difficult to read,30-04-2019 19:06
54,1,0,False,Non-designer,2,lexical,19,sansforgetica,structure,word,Sure word,1.0,,,2666.0,7.888334500738654,7,difficult to read,30-04-2019 19:06
55,1,0,False,Non-designer,2,lexical,20,sansforgetica,collainess,non-word,Probably word,0.0,,,4268.0,8.358900612421644,7,difficult to read,30-04-2019 19:06
56,1,0,False,Non-designer,2,recognition,1,sansforgetica,breath,word,Sure not seen,1.0,not seen,breakfast,5479.0,8.608677881538416,7,difficult to read,30-04-2019 19:06
57,1,0,False,Non-designer,2,recognition,2,sansforgetica,fighting,word,Sure not seen,1.0,not seen,fight,1944.0,7.572502985020384,7,difficult to read,30-04-2019 19:06
58,1,0,False,Non-designer,2,recognition,3,sansforgetica,structure,word,Sure seen,1.0,seen,structure,2339.0,7.757478766584179,7,difficult to read,30-04-2019 19:06
59,1,0,False,Non-designer,2,recognition,4,sansforgetica,collainess,non-word,Sure seen,1.0,seen,collainess,2217.0,7.7039102096163115,7,difficult to read,30-04-2019 19:06
60,1,0,False,Non-designer,2,recognition,5,sansforgetica,minalry,non-word,Sure seen,1.0,seen,minalry,1911.0,7.555381944240273,7,difficult to read,30-04-2019 19:06
61,1,0,False,Non-designer,2,recognition,6,sansforgetica,spoke,word,Sure not seen,1.0,not seen,spite,3704.0,8.21716859576607,7,difficult to read,30-04-2019 19:06
62,1,0,False,Non-designer,2,recognition,7,sansforgetica,condiers,non-word,Probably not seen,1.0,not seen,condamenced,2583.0,7.8567067930958405,7,difficult to read,30-04-2019 19:06
63,1,0,False,Non-designer,2,recognition,8,sansforgetica,pentifical,non-word,Probably not seen,1.0,not seen,penerer,2082.0,7.641084249174914,7,difficult to read,30-04-2019 19:06
64,1,0,False,Non-designer,2,recognition,9,sansforgetica,empefic,non-word,Sure seen,1.0,seen,empefic,2032.0,7.616775808698373,7,difficult to read,30-04-2019 19:06
65,1,0,False,Non-designer,2,recognition,10,sansforgetica,civil,word,Sure seen,1.0,seen,civil,1219.0,7.105786129481271,7,difficult to read,30-04-2019 19:06
66,1,0,False,Non-designer,2,recognition,11,sansforgetica,forget,word,Sure seen,1.0,seen,forget,1012.0,6.919683849847411,7,difficult to read,30-04-2019 19:06
67,1,0,False,Non-designer,2,recognition,12,sansforgetica,thurning,non-word,Probably seen,0.0,not seen,thrughts,4197.0,8.34212526333359,7,difficult to read,30-04-2019 19:06
68,1,0,False,Non-designer,2,recognition,13,sansforgetica,hysturably,non-word,Sure seen,1.0,seen,hysturably,2923.0,7.980365765111246,7,difficult to read,30-04-2019 19:06
69,1,0,False,Non-designer,2,recognition,14,sansforgetica,truced,non-word,Probably not seen,1.0,not seen,trevation,2459.0,7.807510042216193,7,difficult to read,30-04-2019 19:06
70,1,0,False,Non-designer,2,recognition,15,sansforgetica,badly,word,Sure not seen,1.0,not seen,babies,2767.0,7.925518979786926,7,difficult to read,30-04-2019 19:06
71,1,0,False,Non-designer,2,recognition,16,sansforgetica,necessary,word,Sure seen,1.0,seen,necessary,2025.0,7.613324979540639,7,difficult to read,30-04-2019 19:06
72,1,1,False,Graphic designer,1,lexical,1,arial,chaped,non-word,Sure word,0.0,,,2544.0,7.841492924460013,60,very easy to read,30-04-2019 19:03
73,1,1,False,Graphic designer,1,lexical,2,arial,uncregately,non-word,Sure non-word,1.0,,,5907.0,8.683893367307235,60,very easy to read,30-04-2019 19:03
74,1,1,False,Graphic designer,1,lexical,3,arial,itself,word,Sure word,1.0,,,1608.0,7.382746449738912,60,very easy to read,30-04-2019 19:03
75,1,1,False,Graphic designer,1,lexical,4,arial,hills,word,Sure word,1.0,,,1237.0,7.1204443723924875,60,very easy to read,30-04-2019 19:03
76,1,1,False,Graphic designer,1,lexical,5,arial,pointed,word,Sure word,1.0,,,1271.0,7.147559271189454,60,very easy to read,30-04-2019 19:03
77,1,1,False,Graphic designer,1,lexical,6,arial,trust,word,Sure word,1.0,,,1148.0,7.045776576879511,60,very easy to read,30-04-2019 19:03
78,1,1,False,Graphic designer,1,lexical,7,arial,happy,word,Sure word,1.0,,,1225.0,7.110696122978827,60,very easy to read,30-04-2019 19:03
79,1,1,False,Graphic designer,1,lexical,8,arial,meade,non-word,Probably word,0.0,,,2509.0,7.827639546366422,60,very easy to read,30-04-2019 19:03
80,1,1,False,Graphic designer,1,lexical,9,arial,herhaps,non-word,Sure non-word,1.0,,,3859.0,8.258163361537619,60,very easy to read,30-04-2019 19:03
81,1,1,False,Graphic designer,1,lexical,10,arial,besides,word,Sure word,1.0,,,1361.0,7.215975002651466,60,very easy to read,30-04-2019 19:03
82,1,1,False,Graphic designer,1,lexical,11,arial,thembling,non-word,Probably word,0.0,,,4073.0,8.312135107648412,60,very easy to read,30-04-2019 19:03
83,1,1,False,Graphic designer,1,lexical,12,arial,saying,word,Sure word,1.0,,,1080.0,6.984716320118266,60,very easy to read,30-04-2019 19:03
84,1,1,False,Graphic designer,1,lexical,13,arial,within,word,Sure word,1.0,,,1024.0,6.931471805599453,60,very easy to read,30-04-2019 19:03
85,1,1,False,Graphic designer,1,lexical,14,arial,nobody,word,Sure word,1.0,,,956.0,6.862757913051401,60,very easy to read,30-04-2019 19:03
86,1,1,False,Graphic designer,1,lexical,15,arial,incriance,non-word,Probably non-word,1.0,,,6086.0,8.713746330456916,60,very easy to read,30-04-2019 19:03
87,1,1,False,Graphic designer,1,lexical,16,arial,invironable,non-word,Sure non-word,1.0,,,2115.0,7.656810091480378,60,very easy to read,30-04-2019 19:03
88,1,1,False,Graphic designer,1,lexical,17,arial,peoped,non-word,Sure non-word,1.0,,,1879.0,7.538494999413465,60,very easy to read,30-04-2019 19:03
89,1,1,False,Graphic designer,1,lexical,18,arial,examitional,non-word,Sure non-word,1.0,,,2583.0,7.8567067930958405,60,very easy to read,30-04-2019 19:03
90,1,1,False,Graphic designer,1,lexical,19,arial,neiminate,non-word,Probably non-word,1.0,,,4732.0,8.462103225098277,60,very easy to read,30-04-2019 19:03
91,1,1,False,Graphic designer,1,lexical,20,arial,effective,word,Sure word,1.0,,,1887.0,7.54274354536855,60,very easy to read,30-04-2019 19:03
92,1,1,False,Graphic designer,1,recognition,1,arial,examped,non-word,Sure not seen,1.0,not seen,examitional,3587.0,8.185071477532283,60,very easy to read,30-04-2019 19:03
93,1,1,False,Graphic designer,1,recognition,2,arial,without,word,Sure not seen,1.0,not seen,within,2779.0,7.929846429742503,60,very easy to read,30-04-2019 19:03
94,1,1,False,Graphic designer,1,recognition,3,arial,saying,word,Sure seen,1.0,seen,saying,1462.0,7.2875606403097235,60,very easy to read,30-04-2019 19:03
95,1,1,False,Graphic designer,1,recognition,4,arial,peoped,non-word,Sure seen,1.0,seen,peoped,1822.0,7.507690077819904,60,very easy to read,30-04-2019 19:03
96,1,1,False,Graphic designer,1,recognition,5,arial,pointed,word,Sure seen,1.0,seen,pointed,1116.0,7.017506142941256,60,very easy to read,30-04-2019 19:03
97,1,1,False,Graphic designer,1,recognition,6,arial,chaped,non-word,Sure seen,1.0,seen,chaped,1303.0,7.172424577124845,60,very easy to read,30-04-2019 19:03
98,1,1,False,Graphic designer,1,recognition,7,arial,invironment,non-word,Sure not seen,1.0,not seen,invironable,3657.0,8.204398418149381,60,very easy to read,30-04-2019 19:03
99,1,1,False,Graphic designer,1,recognition,8,arial,neiting,non-word,Sure not seen,1.0,not seen,neiminate,1203.0,7.0925737159746784,60,very easy to read,30-04-2019 19:03
100,1,1,False,Graphic designer,1,recognition,9,arial,happy,word,Sure seen,1.0,seen,happy,1216.0,7.103322062526113,60,very easy to read,30-04-2019 19:03
101,1,1,False,Graphic designer,1,recognition,10,arial,himself,word,Sure not seen,1.0,not seen,hills,1372.0,7.22402480828583,60,very easy to read,30-04-2019 19:03
102,1,1,False,Graphic designer,1,recognition,11,arial,meade,non-word,Sure seen,1.0,seen,meade,1260.0,7.138866999945524,60,very easy to read,30-04-2019 19:03
103,1,1,False,Graphic designer,1,recognition,12,arial,nodded,word,Sure not seen,1.0,not seen,nobody,1518.0,7.325148957955575,60,very easy to read,30-04-2019 19:03
104,1,1,False,Graphic designer,1,recognition,13,arial,trust,word,Sure seen,1.0,seen,trust,1036.0,6.943122422819428,60,very easy to read,30-04-2019 19:03
105,1,1,False,Graphic designer,1,recognition,14,arial,inderected,non-word,Sure not seen,1.0,not seen,incriance,2993.0,8.0040315078527,60,very easy to read,30-04-2019 19:03
106,1,1,False,Graphic designer,1,recognition,15,arial,herhaps,non-word,Sure seen,1.0,seen,herhaps,1238.0,7.121252453244542,60,very easy to read,30-04-2019 19:03
107,1,1,False,Graphic designer,1,recognition,16,arial,better,word,Sure not seen,1.0,not seen,besides,2744.0,7.917171988845776,60,very easy to read,30-04-2019 19:03
108,1,1,False,Graphic designer,2,lexical,1,sansforgetica,furnion,non-word,Sure non-word,1.0,,,5943.0,8.68996933536666,100,ok,30-04-2019 19:03
109,1,1,False,Graphic designer,2,lexical,2,sansforgetica,tempriation,non-word,Sure non-word,1.0,,,6117.0,8.718827059242566,100,ok,30-04-2019 19:03
110,1,1,False,Graphic designer,2,lexical,3,sansforgetica,necressor,non-word,Sure non-word,1.0,,,4916.0,8.500250470685925,100,ok,30-04-2019 19:03
111,1,1,False,Graphic designer,2,lexical,4,sansforgetica,women,word,Sure word,1.0,,,1543.0,7.341483852363161,100,ok,30-04-2019 19:03
112,1,1,False,Graphic designer,2,lexical,5,sansforgetica,children,word,Sure word,1.0,,,752.0,6.62273632394984,100,ok,30-04-2019 19:03
113,1,1,False,Graphic designer,2,lexical,6,sansforgetica,planning,word,Sure word,1.0,,,1204.0,7.093404625868766,100,ok,30-04-2019 19:03
114,1,1,False,Graphic designer,2,lexical,7,sansforgetica,purpose,word,Sure word,1.0,,,1068.0,6.97354301952014,100,ok,30-04-2019 19:03
115,1,1,False,Graphic designer,2,lexical,8,sansforgetica,perietail,non-word,Probably non-word,1.0,,,4197.0,8.34212526333359,100,ok,30-04-2019 19:03
116,1,1,False,Graphic designer,2,lexical,9,sansforgetica,incormately,non-word,Sure non-word,1.0,,,6311.0,8.75004942158424,100,ok,30-04-2019 19:03
117,1,1,False,Graphic designer,2,lexical,10,sansforgetica,appearance,word,Sure word,1.0,,,1856.0,7.526178913346146,100,ok,30-04-2019 19:03
118,1,1,False,Graphic designer,2,lexical,11,sansforgetica,discomision,non-word,Probably word,0.0,,,4648.0,8.444192298531748,100,ok,30-04-2019 19:03
119,1,1,False,Graphic designer,2,lexical,12,sansforgetica,miney,non-word,Sure non-word,1.0,,,3464.0,8.150179269682326,100,ok,30-04-2019 19:03
120,1,1,False,Graphic designer,2,lexical,13,sansforgetica,plain,word,Sure word,1.0,,,1259.0,7.138073034044347,100,ok,30-04-2019 19:03
121,1,1,False,Graphic designer,2,lexical,14,sansforgetica,president,word,Sure word,1.0,,,1294.0,7.165493475060845,100,ok,30-04-2019 19:03
122,1,1,False,Graphic designer,2,lexical,15,sansforgetica,signs,word,Sure word,1.0,,,1082.0,6.9865664594064265,100,ok,30-04-2019 19:03
123,1,1,False,Graphic designer,2,lexical,16,sansforgetica,larms,non-word,Sure non-word,1.0,,,4712.0,8.457867725331422,100,ok,30-04-2019 19:03
124,1,1,False,Graphic designer,2,lexical,17,sansforgetica,likelf,non-word,Sure non-word,1.0,,,2951.0,7.989899374942939,100,ok,30-04-2019 19:03
125,1,1,False,Graphic designer,2,lexical,18,sansforgetica,beginning,word,Sure word,1.0,,,1448.0,7.277938572945661,100,ok,30-04-2019 19:03
126,1,1,False,Graphic designer,2,lexical,19,sansforgetica,catch,word,Sure word,1.0,,,990.0,6.897704943128636,100,ok,30-04-2019 19:03
127,1,1,False,Graphic designer,2,lexical,20,sansforgetica,lonnot,non-word,Sure non-word,1.0,,,2283.0,7.733245646529795,100,ok,30-04-2019 19:03
128,1,1,False,Graphic designer,2,recognition,1,sansforgetica,lonour,non-word,Sure not seen,1.0,not seen,lonnot,6435.0,8.769507120030227,100,ok,30-04-2019 19:03
129,1,1,False,Graphic designer,2,recognition,2,sansforgetica,tempriation,non-word,Sure seen,1.0,seen,tempriation,1991.0,7.596392304064196,100,ok,30-04-2019 19:03
130,1,1,False,Graphic designer,2,recognition,3,sansforgetica,perietail,non-word,Sure not seen,0.0,seen,perietail,2722.0,7.909122183211411,100,ok,30-04-2019 19:03
131,1,1,False,Graphic designer,2,recognition,4,sansforgetica,places,word,Sure not seen,1.0,not seen,plain,1397.0,7.242082359256962,100,ok,30-04-2019 19:03
132,1,1,False,Graphic designer,2,recognition,5,sansforgetica,women,word,Sure seen,1.0,seen,women,1686.0,7.430114138561801,100,ok,30-04-2019 19:03
133,1,1,False,Graphic designer,2,recognition,6,sansforgetica,lational,non-word,Sure not seen,1.0,not seen,larms,1981.0,7.591357046698551,100,ok,30-04-2019 19:03
134,1,1,False,Graphic designer,2,recognition,7,sansforgetica,approach,word,Sure not seen,1.0,not seen,appearance,1495.0,7.3098814858247865,100,ok,30-04-2019 19:03
135,1,1,False,Graphic designer,2,recognition,8,sansforgetica,neeld,non-word,Sure not seen,1.0,not seen,necressor,1710.0,7.444248649496705,100,ok,30-04-2019 19:03
136,1,1,False,Graphic designer,2,recognition,9,sansforgetica,silence,word,Sure not seen,1.0,not seen,signs,1127.0,7.027314514039777,100,ok,30-04-2019 19:03
137,1,1,False,Graphic designer,2,recognition,10,sansforgetica,miney,non-word,Sure seen,1.0,seen,miney,1393.0,7.239214973779806,100,ok,30-04-2019 19:03
138,1,1,False,Graphic designer,2,recognition,11,sansforgetica,plans,word,Sure seen,0.0,not seen,planning,855.0,6.75110146893676,100,ok,30-04-2019 19:03
139,1,1,False,Graphic designer,2,recognition,12,sansforgetica,children,word,Sure seen,1.0,seen,children,731.0,6.594413459749778,100,ok,30-04-2019 19:03
140,1,1,False,Graphic designer,2,recognition,13,sansforgetica,purpose,word,Sure seen,1.0,seen,purpose,1024.0,6.931471805599453,100,ok,30-04-2019 19:03
141,1,1,False,Graphic designer,2,recognition,14,sansforgetica,catch,word,Sure seen,1.0,seen,catch,979.0,6.88653164253051,100,ok,30-04-2019 19:03
142,1,1,False,Graphic designer,2,recognition,15,sansforgetica,discoverent,non-word,Probably not seen,1.0,not seen,discomision,6234.0,8.737773460327283,100,ok,30-04-2019 19:03
143,1,1,False,Graphic designer,2,recognition,16,sansforgetica,likelf,non-word,Probably not seen,0.0,seen,likelf,1427.0,7.2633296174768365,100,ok,30-04-2019 19:03
144,1,2,False,Graphic designer,1,lexical,1,arial,lational,non-word,Probably word,0.0,,,3143.0,8.052933036797567,22,ok,30-04-2019 19:02
145,1,2,False,Graphic designer,1,lexical,2,arial,actual,word,Sure word,1.0,,,2139.0,7.668093709082406,22,ok,30-04-2019 19:02
146,1,2,False,Graphic designer,1,lexical,3,arial,drestion,non-word,Sure non-word,1.0,,,2915.0,7.977625098784593,22,ok,30-04-2019 19:02
147,1,2,False,Graphic designer,1,lexical,4,arial,catuirented,non-word,Sure non-word,1.0,,,3199.0,8.070593539949519,22,ok,30-04-2019 19:02
148,1,2,False,Graphic designer,1,lexical,5,arial,dissehons,non-word,Sure non-word,1.0,,,2829.0,7.947678571301568,22,ok,30-04-2019 19:02
149,1,2,False,Graphic designer,1,lexical,6,arial,different,word,Sure word,1.0,,,2803.0,7.938445551164788,22,ok,30-04-2019 19:02
150,1,2,False,Graphic designer,1,lexical,7,arial,since,word,Sure word,1.0,,,1690.0,7.432483807917119,22,ok,30-04-2019 19:02
151,1,2,False,Graphic designer,1,lexical,8,arial,distecties,non-word,Probably non-word,1.0,,,2369.0,7.7702232041587855,22,ok,30-04-2019 19:02
152,1,2,False,Graphic designer,1,lexical,9,arial,water,word,Sure word,1.0,,,1645.0,7.405495663199472,22,ok,30-04-2019 19:02
153,1,2,False,Graphic designer,1,lexical,10,arial,falling,word,Sure word,1.0,,,1600.0,7.3777589082278725,22,ok,30-04-2019 19:02
154,1,2,False,Graphic designer,1,lexical,11,arial,studies,word,Sure word,1.0,,,1866.0,7.531552381407289,22,ok,30-04-2019 19:02
155,1,2,False,Graphic designer,1,lexical,12,arial,roaked,non-word,Probably non-word,1.0,,,2634.0,7.876258882303226,22,ok,30-04-2019 19:02
156,1,2,False,Graphic designer,1,lexical,13,arial,discovered,word,Sure word,1.0,,,1749.0,7.466799475018602,22,ok,30-04-2019 19:02
157,1,2,False,Graphic designer,1,lexical,14,arial,hands,word,Sure word,1.0,,,1469.0,7.292337176173877,22,ok,30-04-2019 19:02
158,1,2,False,Graphic designer,1,lexical,15,arial,mothortere,non-word,Probably non-word,1.0,,,3120.0,8.045588280803528,22,ok,30-04-2019 19:02
159,1,2,False,Graphic designer,1,lexical,16,arial,convence,non-word,Sure non-word,1.0,,,3206.0,8.072779333169498,22,ok,30-04-2019 19:02
160,1,2,False,Graphic designer,1,lexical,17,arial,folitties,non-word,Probably word,0.0,,,3550.0,8.174702882469461,22,ok,30-04-2019 19:02
161,1,2,False,Graphic designer,1,lexical,18,arial,reported,word,Sure word,1.0,,,1675.0,7.423568444259167,22,ok,30-04-2019 19:02
162,1,2,False,Graphic designer,1,lexical,19,arial,rementable,non-word,Probably non-word,1.0,,,2660.0,7.886081401775745,22,ok,30-04-2019 19:02
163,1,2,False,Graphic designer,1,lexical,20,arial,weeks,word,Sure word,1.0,,,1603.0,7.3796321526095525,22,ok,30-04-2019 19:02
164,1,2,False,Graphic designer,1,recognition,1,arial,familiar,word,Sure not seen,1.0,not seen,falling,5263.0,8.56845648535378,22,ok,30-04-2019 19:02
165,1,2,False,Graphic designer,1,recognition,2,arial,distecties,non-word,Probably seen,1.0,seen,distecties,3385.0,8.127109185346375,22,ok,30-04-2019 19:02
166,1,2,False,Graphic designer,1,recognition,3,arial,hands,word,Sure seen,1.0,seen,hands,1405.0,7.247792581767846,22,ok,30-04-2019 19:02
167,1,2,False,Graphic designer,1,recognition,4,arial,actual,word,Sure seen,1.0,seen,actual,1499.0,7.312553498102598,22,ok,30-04-2019 19:02
168,1,2,False,Graphic designer,1,recognition,5,arial,discussed,word,Probably not seen,1.0,not seen,discovered,3266.0,8.09132127353041,22,ok,30-04-2019 19:02
169,1,2,False,Graphic designer,1,recognition,6,arial,remernal,non-word,Sure not seen,1.0,not seen,rementable,2169.0,7.682021510826875,22,ok,30-04-2019 19:02
170,1,2,False,Graphic designer,1,recognition,7,arial,water,word,Sure seen,1.0,seen,water,1649.0,7.407924322559599,22,ok,30-04-2019 19:02
171,1,2,False,Graphic designer,1,recognition,8,arial,since,word,Sure seen,1.0,seen,since,1345.0,7.20414929203594,22,ok,30-04-2019 19:02
172,1,2,False,Graphic designer,1,recognition,9,arial,motter,non-word,Sure not seen,1.0,not seen,mothortere,1863.0,7.529943370601589,22,ok,30-04-2019 19:02
173,1,2,False,Graphic designer,1,recognition,10,arial,catuirented,non-word,Sure seen,1.0,seen,catuirented,3620.0,8.194229304819817,22,ok,30-04-2019 19:02
174,1,2,False,Graphic designer,1,recognition,11,arial,folitties,non-word,Sure seen,1.0,seen,folitties,2019.0,7.610357618312838,22,ok,30-04-2019 19:02
175,1,2,False,Graphic designer,1,recognition,12,arial,romoting,non-word,Sure not seen,1.0,not seen,roaked,2073.0,7.636752112435779,22,ok,30-04-2019 19:02
176,1,2,False,Graphic designer,1,recognition,13,arial,laucied,non-word,Sure not seen,1.0,not seen,lational,2060.0,7.630461261783627,22,ok,30-04-2019 19:02
177,1,2,False,Graphic designer,1,recognition,14,arial,weight,word,Sure not seen,1.0,not seen,weeks,1869.0,7.533158807455563,22,ok,30-04-2019 19:02
178,1,2,False,Graphic designer,1,recognition,15,arial,difficulty,word,Sure not seen,1.0,not seen,different,1795.0,7.492760300922379,22,ok,30-04-2019 19:02
179,1,2,False,Graphic designer,1,recognition,16,arial,dissehons,non-word,Sure not seen,0.0,seen,dissehons,2430.0,7.795646536334594,22,ok,30-04-2019 19:02
180,1,2,False,Graphic designer,2,lexical,1,sansforgetica,condition,word,Sure word,1.0,,,3225.0,8.078688229229872,20,difficult to read,30-04-2019 19:02
181,1,2,False,Graphic designer,2,lexical,2,sansforgetica,central,word,Sure word,1.0,,,3044.0,8.020927718981577,20,difficult to read,30-04-2019 19:02
182,1,2,False,Graphic designer,2,lexical,3,sansforgetica,pritain,non-word,Probably non-word,1.0,,,2671.0,7.890208213109961,20,difficult to read,30-04-2019 19:02
183,1,2,False,Graphic designer,2,lexical,4,sansforgetica,sacusaned,non-word,Sure non-word,1.0,,,1894.0,7.546446273746024,20,difficult to read,30-04-2019 19:02
184,1,2,False,Graphic designer,2,lexical,5,sansforgetica,holts,non-word,Sure non-word,1.0,,,2698.0,7.900266036767701,20,difficult to read,30-04-2019 19:02
185,1,2,False,Graphic designer,2,lexical,6,sansforgetica,earlier,word,Sure word,1.0,,,3741.0,8.227108234348146,20,difficult to read,30-04-2019 19:02
186,1,2,False,Graphic designer,2,lexical,7,sansforgetica,friendly,word,Sure word,1.0,,,1205.0,7.094234845924755,20,difficult to read,30-04-2019 19:02
187,1,2,False,Graphic designer,2,lexical,8,sansforgetica,outside,word,Sure word,1.0,,,1914.0,7.5569505720129,20,difficult to read,30-04-2019 19:02
188,1,2,False,Graphic designer,2,lexical,9,sansforgetica,darrity,non-word,Probably non-word,1.0,,,1855.0,7.5256399750415355,20,difficult to read,30-04-2019 19:02
189,1,2,False,Graphic designer,2,lexical,10,sansforgetica,remernal,non-word,Sure non-word,1.0,,,2370.0,7.7706452341291765,20,difficult to read,30-04-2019 19:02
190,1,2,False,Graphic designer,2,lexical,11,sansforgetica,always,word,Sure word,1.0,,,1250.0,7.1308988302963465,20,difficult to read,30-04-2019 19:02
191,1,2,False,Graphic designer,2,lexical,12,sansforgetica,burropright,non-word,Sure non-word,1.0,,,1833.0,7.513709247839705,20,difficult to read,30-04-2019 19:02
192,1,2,False,Graphic designer,2,lexical,13,sansforgetica,linally,non-word,Sure non-word,1.0,,,1719.0,7.449498005382849,20,difficult to read,30-04-2019 19:02
193,1,2,False,Graphic designer,2,lexical,14,sansforgetica,research,word,Sure word,1.0,,,2424.0,7.793174347189205,20,difficult to read,30-04-2019 19:02
194,1,2,False,Graphic designer,2,lexical,15,sansforgetica,varlies,non-word,Probably non-word,1.0,,,2084.0,7.642044402873258,20,difficult to read,30-04-2019 19:02
195,1,2,False,Graphic designer,2,lexical,16,sansforgetica,primals,non-word,Probably non-word,1.0,,,2796.0,7.935945103353701,20,difficult to read,30-04-2019 19:02
196,1,2,False,Graphic designer,2,lexical,17,sansforgetica,addition,word,Sure word,1.0,,,1653.0,7.410347097821024,20,difficult to read,30-04-2019 19:02
197,1,2,False,Graphic designer,2,lexical,18,sansforgetica,alone,word,Sure word,1.0,,,1190.0,7.081708586105575,20,difficult to read,30-04-2019 19:02
198,1,2,False,Graphic designer,2,lexical,19,sansforgetica,enorming,non-word,Probably non-word,1.0,,,3510.0,8.163371316459912,20,difficult to read,30-04-2019 19:02
199,1,2,False,Graphic designer,2,lexical,20,sansforgetica,extremely,word,Sure word,1.0,,,2415.0,7.789454566086673,20,difficult to read,30-04-2019 19:02
200,1,2,False,Graphic designer,2,recognition,1,sansforgetica,central,word,Sure seen,1.0,seen,central,2164.0,7.679713639966372,20,difficult to read,30-04-2019 19:02
201,1,2,False,Graphic designer,2,recognition,2,sansforgetica,darrity,non-word,Probably seen,1.0,seen,darrity,4010.0,8.296546520300614,20,difficult to read,30-04-2019 19:02
202,1,2,False,Graphic designer,2,recognition,3,sansforgetica,sancerats,non-word,Sure not seen,1.0,not seen,sacusaned,2557.0,7.846589975291186,20,difficult to read,30-04-2019 19:02
203,1,2,False,Graphic designer,2,recognition,4,sansforgetica,enound,non-word,Sure not seen,1.0,not seen,enorming,1212.0,7.10002716662926,20,difficult to read,30-04-2019 19:02
204,1,2,False,Graphic designer,2,recognition,5,sansforgetica,extremely,word,Sure seen,1.0,seen,extremely,1626.0,7.3938782901077555,20,difficult to read,30-04-2019 19:02
205,1,2,False,Graphic designer,2,recognition,6,sansforgetica,addition,word,Probably not seen,0.0,seen,addition,2307.0,7.7437032581737535,20,difficult to read,30-04-2019 19:02
206,1,2,False,Graphic designer,2,recognition,7,sansforgetica,resources,word,Sure not seen,1.0,not seen,research,2423.0,7.792761720816526,20,difficult to read,30-04-2019 19:02
207,1,2,False,Graphic designer,2,recognition,8,sansforgetica,along,word,Sure not seen,1.0,not seen,alone,3094.0,8.037220031133012,20,difficult to read,30-04-2019 19:02
208,1,2,False,Graphic designer,2,recognition,9,sansforgetica,pritain,non-word,Sure seen,1.0,seen,pritain,1906.0,7.552762084214147,20,difficult to read,30-04-2019 19:02
209,1,2,False,Graphic designer,2,recognition,10,sansforgetica,remernal,non-word,Sure seen,1.0,seen,remernal,1413.0,7.253470382684528,20,difficult to read,30-04-2019 19:02
210,1,2,False,Graphic designer,2,recognition,11,sansforgetica,object,word,Sure not seen,1.0,not seen,outside,1619.0,7.389563953677635,20,difficult to read,30-04-2019 19:02
211,1,2,False,Graphic designer,2,recognition,12,sansforgetica,primals,non-word,Sure seen,1.0,seen,primals,1598.0,7.37650812632622,20,difficult to read,30-04-2019 19:02
212,1,2,False,Graphic designer,2,recognition,13,sansforgetica,linangently,non-word,Probably not seen,1.0,not seen,linally,1585.0,7.368339686311381,20,difficult to read,30-04-2019 19:02
213,1,2,False,Graphic designer,2,recognition,14,sansforgetica,busitown,non-word,Sure not seen,1.0,not seen,burropright,2672.0,7.890582534656536,20,difficult to read,30-04-2019 19:02
214,1,2,False,Graphic designer,2,recognition,15,sansforgetica,earlier,word,Sure seen,1.0,seen,earlier,1577.0,7.3632795869630385,20,difficult to read,30-04-2019 19:02
215,1,2,False,Graphic designer,2,recognition,16,sansforgetica,among,word,Sure not seen,1.0,not seen,always,1457.0,7.284134806195205,20,difficult to read,30-04-2019 19:02
216,1,3,False,Graphic designer,1,lexical,1,arial,absolutely,word,Sure word,1.0,,,2870.0,7.962067308753666,50,easy to read,30-04-2019 19:02
217,1,3,False,Graphic designer,1,lexical,2,arial,behausion,non-word,Probably non-word,1.0,,,3724.0,8.222553638396958,50,easy to read,30-04-2019 19:02
218,1,3,False,Graphic designer,1,lexical,3,arial,imputives,non-word,Probably non-word,1.0,,,2688.0,7.89655270164304,50,easy to read,30-04-2019 19:02
219,1,3,False,Graphic designer,1,lexical,4,arial,minsuit,non-word,Probably non-word,1.0,,,2205.0,7.6984827878809465,50,easy to read,30-04-2019 19:02
220,1,3,False,Graphic designer,1,lexical,5,arial,brummitic,non-word,Sure non-word,1.0,,,1653.0,7.410347097821024,50,easy to read,30-04-2019 19:02
221,1,3,False,Graphic designer,1,lexical,6,arial,progress,word,Sure word,1.0,,,1306.0,7.174724309836376,50,easy to read,30-04-2019 19:02
222,1,3,False,Graphic designer,1,lexical,7,arial,legan,non-word,Probably non-word,1.0,,,2857.0,7.957527402230773,50,easy to read,30-04-2019 19:02
223,1,3,False,Graphic designer,1,lexical,8,arial,throughout,word,Sure word,1.0,,,2554.0,7.845416036592485,50,easy to read,30-04-2019 19:02
224,1,3,False,Graphic designer,1,lexical,9,arial,occational,non-word,Probably word,0.0,,,6007.0,8.700680734850161,50,easy to read,30-04-2019 19:02
225,1,3,False,Graphic designer,1,lexical,10,arial,forwared,non-word,Sure non-word,1.0,,,2307.0,7.7437032581737535,50,easy to read,30-04-2019 19:02
226,1,3,False,Graphic designer,1,lexical,11,arial,strike,word,Sure word,1.0,,,1665.0,7.417580402414544,50,easy to read,30-04-2019 19:02
227,1,3,False,Graphic designer,1,lexical,12,arial,resources,word,Sure word,1.0,,,3127.0,8.047829357457841,50,easy to read,30-04-2019 19:02
228,1,3,False,Graphic designer,1,lexical,13,arial,distected,non-word,Sure word,0.0,,,3330.0,8.110727582974489,50,easy to read,30-04-2019 19:02
229,1,3,False,Graphic designer,1,lexical,14,arial,species,word,Sure word,1.0,,,1733.0,7.457609289715606,50,easy to read,30-04-2019 19:02
230,1,3,False,Graphic designer,1,lexical,15,arial,needed,word,Sure word,1.0,,,1338.0,7.198931240688173,50,easy to read,30-04-2019 19:02
231,1,3,False,Graphic designer,1,lexical,16,arial,million,word,Sure word,1.0,,,1518.0,7.325148957955575,50,easy to read,30-04-2019 19:02
232,1,3,False,Graphic designer,1,lexical,17,arial,front,word,Sure word,1.0,,,1138.0,7.037027614686276,50,easy to read,30-04-2019 19:02
233,1,3,False,Graphic designer,1,lexical,18,arial,expected,word,Sure word,1.0,,,1506.0,7.317212408359839,50,easy to read,30-04-2019 19:02
234,1,3,False,Graphic designer,1,lexical,19,arial,indesphant,non-word,Probably non-word,1.0,,,2161.0,7.6783263565068856,50,easy to read,30-04-2019 19:02
235,1,3,False,Graphic designer,1,lexical,20,arial,dearn,non-word,Probably non-word,1.0,,,2970.0,7.996317231796746,50,easy to read,30-04-2019 19:02
236,1,3,False,Graphic designer,1,recognition,1,arial,occational,non-word,Sure seen,1.0,seen,occational,5771.0,8.660600654710967,50,easy to read,30-04-2019 19:02
237,1,3,False,Graphic designer,1,recognition,2,arial,legan,non-word,Sure seen,1.0,seen,legan,1563.0,7.354362330421477,50,easy to read,30-04-2019 19:02
238,1,3,False,Graphic designer,1,recognition,3,arial,dearn,non-word,Sure seen,1.0,seen,dearn,1069.0,6.974478911025045,50,easy to read,30-04-2019 19:02
239,1,3,False,Graphic designer,1,recognition,4,arial,foundenced,non-word,Sure not seen,1.0,not seen,forwared,3262.0,8.09009578318096,50,easy to read,30-04-2019 19:02
240,1,3,False,Graphic designer,1,recognition,5,arial,minister,word,Sure not seen,1.0,not seen,million,1295.0,7.166265974133638,50,easy to read,30-04-2019 19:02
241,1,3,False,Graphic designer,1,recognition,6,arial,burropretic,non-word,Sure not seen,1.0,not seen,brummitic,978.0,6.885509670034818,50,easy to read,30-04-2019 19:02
242,1,3,False,Graphic designer,1,recognition,7,arial,indifferely,non-word,Sure not seen,1.0,not seen,indesphant,1225.0,7.110696122978827,50,easy to read,30-04-2019 19:02
243,1,3,False,Graphic designer,1,recognition,8,arial,behausion,non-word,Sure not seen,0.0,seen,behausion,2127.0,7.6624678152002375,50,easy to read,30-04-2019 19:02
244,1,3,False,Graphic designer,1,recognition,9,arial,progress,word,Sure seen,1.0,seen,progress,1553.0,7.347943823148687,50,easy to read,30-04-2019 19:02
245,1,3,False,Graphic designer,1,recognition,10,arial,front,word,Sure seen,1.0,seen,front,1046.0,6.952728644624869,50,easy to read,30-04-2019 19:02
246,1,3,False,Graphic designer,1,recognition,11,arial,expected,word,Sure seen,1.0,seen,expected,878.0,6.777646593635117,50,easy to read,30-04-2019 19:02
247,1,3,False,Graphic designer,1,recognition,12,arial,respect,word,Sure seen,0.0,not seen,resources,1125.0,7.025538314638521,50,easy to read,30-04-2019 19:02
248,1,3,False,Graphic designer,1,recognition,13,arial,strike,word,Sure seen,1.0,seen,strike,854.0,6.74993119378857,50,easy to read,30-04-2019 19:02
249,1,3,False,Graphic designer,1,recognition,14,arial,accepted,word,Probably seen,0.0,not seen,absolutely,2015.0,7.608374474380783,50,easy to read,30-04-2019 19:02
250,1,3,False,Graphic designer,1,recognition,15,arial,incogering,non-word,Sure not seen,1.0,not seen,imputives,2187.0,7.690286020676768,50,easy to read,30-04-2019 19:02
251,1,3,False,Graphic designer,1,recognition,16,arial,speech,word,Sure not seen,1.0,not seen,species,1751.0,7.467942332285852,50,easy to read,30-04-2019 19:02
252,1,3,False,Graphic designer,2,lexical,1,sansforgetica,formal,word,Sure word,1.0,,,3184.0,8.065893546964274,50,difficult to read,30-04-2019 19:02
253,1,3,False,Graphic designer,2,lexical,2,sansforgetica,carry,word,Sure word,1.0,,,1755.0,7.470224135899966,50,difficult to read,30-04-2019 19:02
254,1,3,False,Graphic designer,2,lexical,3,sansforgetica,special,word,Sure word,1.0,,,1654.0,7.4109518755836366,50,difficult to read,30-04-2019 19:02
255,1,3,False,Graphic designer,2,lexical,4,sansforgetica,couster,non-word,Probably word,0.0,,,5200.0,8.556413904569519,50,difficult to read,30-04-2019 19:02
256,1,3,False,Graphic designer,2,lexical,5,sansforgetica,opened,word,Sure word,1.0,,,1527.0,7.3310603052186325,50,difficult to read,30-04-2019 19:02
257,1,3,False,Graphic designer,2,lexical,6,sansforgetica,setting,word,Sure word,1.0,,,2453.0,7.8050670442584895,50,difficult to read,30-04-2019 19:02
258,1,3,False,Graphic designer,2,lexical,7,sansforgetica,western,word,Sure word,1.0,,,1395.0,7.240649694255466,50,difficult to read,30-04-2019 19:02
259,1,3,False,Graphic designer,2,lexical,8,sansforgetica,afraid,word,Sure word,1.0,,,1327.0,7.190676034332207,50,difficult to read,30-04-2019 19:02
260,1,3,False,Graphic designer,2,lexical,9,sansforgetica,trads,non-word,Probably non-word,1.0,,,3378.0,8.125039097367745,50,difficult to read,30-04-2019 19:02
261,1,3,False,Graphic designer,2,lexical,10,sansforgetica,autteuvrity,non-word,Probably non-word,1.0,,,1552.0,7.347299700743164,50,difficult to read,30-04-2019 19:02
262,1,3,False,Graphic designer,2,lexical,11,sansforgetica,consiously,non-word,Sure word,0.0,,,1720.0,7.450079569807499,50,difficult to read,30-04-2019 19:02
263,1,3,False,Graphic designer,2,lexical,12,sansforgetica,confidence,word,Sure word,1.0,,,1394.0,7.2399325913204695,50,difficult to read,30-04-2019 19:02
264,1,3,False,Graphic designer,2,lexical,13,sansforgetica,research,word,Sure word,1.0,,,3803.0,8.24354550792826,50,difficult to read,30-04-2019 19:02
265,1,3,False,Graphic designer,2,lexical,14,sansforgetica,affent,non-word,Probably non-word,1.0,,,2431.0,7.796057974316123,50,difficult to read,30-04-2019 19:02
266,1,3,False,Graphic designer,2,lexical,15,sansforgetica,undusteers,non-word,Probably non-word,1.0,,,2303.0,7.741967899820685,50,difficult to read,30-04-2019 19:02
267,1,3,False,Graphic designer,2,lexical,16,sansforgetica,defence,word,Sure word,1.0,,,1770.0,7.478734825567875,50,difficult to read,30-04-2019 19:02
268,1,3,False,Graphic designer,2,lexical,17,sansforgetica,underation,non-word,Probably non-word,1.0,,,3027.0,8.01532730902172,50,difficult to read,30-04-2019 19:02
269,1,3,False,Graphic designer,2,lexical,18,sansforgetica,centent,non-word,Probably word,0.0,,,4373.0,8.38320455141292,50,difficult to read,30-04-2019 19:02
270,1,3,False,Graphic designer,2,lexical,19,sansforgetica,shouction,non-word,Probably word,0.0,,,2826.0,7.946617563244473,50,difficult to read,30-04-2019 19:02
271,1,3,False,Graphic designer,2,lexical,20,sansforgetica,becend,non-word,Probably word,0.0,,,1901.0,7.550135342488429,50,difficult to read,30-04-2019 19:02
272,1,3,False,Graphic designer,2,recognition,1,sansforgetica,shough,non-word,Sure not seen,1.0,not seen,shouction,1743.0,7.463363045520021,50,difficult to read,30-04-2019 19:02
273,1,3,False,Graphic designer,2,recognition,2,sansforgetica,settled,word,Sure not seen,1.0,not seen,setting,2386.0,7.777373602657861,50,difficult to read,30-04-2019 19:02
274,1,3,False,Graphic designer,2,recognition,3,sansforgetica,auttlefites,non-word,Probably not seen,1.0,not seen,autteuvrity,4612.0,8.436416881388949,50,difficult to read,30-04-2019 19:02
275,1,3,False,Graphic designer,2,recognition,4,sansforgetica,becieve,non-word,Sure not seen,1.0,not seen,becend,1900.0,7.549609165154532,50,difficult to read,30-04-2019 19:02
276,1,3,False,Graphic designer,2,recognition,5,sansforgetica,western,word,Sure seen,1.0,seen,western,1508.0,7.318539548567902,50,difficult to read,30-04-2019 19:02
277,1,3,False,Graphic designer,2,recognition,6,sansforgetica,affent,non-word,Sure not seen,0.0,seen,affent,3733.0,8.224967478914584,50,difficult to read,30-04-2019 19:02
278,1,3,False,Graphic designer,2,recognition,7,sansforgetica,speaking,word,Sure not seen,1.0,not seen,special,2691.0,7.897668150726906,50,difficult to read,30-04-2019 19:02
279,1,3,False,Graphic designer,2,recognition,8,sansforgetica,research,word,Sure seen,1.0,seen,research,1318.0,7.183870715062453,50,difficult to read,30-04-2019 19:02
280,1,3,False,Graphic designer,2,recognition,9,sansforgetica,after,word,Probably seen,0.0,not seen,afraid,2914.0,7.97728198675515,50,difficult to read,30-04-2019 19:02
281,1,3,False,Graphic designer,2,recognition,10,sansforgetica,opened,word,Probably seen,1.0,seen,opened,2113.0,7.655864017616056,50,difficult to read,30-04-2019 19:02
282,1,3,False,Graphic designer,2,recognition,11,sansforgetica,underation,non-word,Probably seen,1.0,seen,underation,3241.0,8.083637203141548,50,difficult to read,30-04-2019 19:02
283,1,3,False,Graphic designer,2,recognition,12,sansforgetica,undusteers,non-word,Sure seen,1.0,seen,undusteers,3308.0,8.104099056143582,50,difficult to read,30-04-2019 19:02
284,1,3,False,Graphic designer,2,recognition,13,sansforgetica,consiously,non-word,Sure seen,1.0,seen,consiously,1912.0,7.555905093611346,50,difficult to read,30-04-2019 19:02
285,1,3,False,Graphic designer,2,recognition,14,sansforgetica,centoment,non-word,Sure not seen,1.0,not seen,centent,2294.0,7.738052297689316,50,difficult to read,30-04-2019 19:02
286,1,3,False,Graphic designer,2,recognition,15,sansforgetica,considered,word,Probably seen,0.0,not seen,confidence,3342.0,8.114324709155339,50,difficult to read,30-04-2019 19:02
287,1,3,False,Graphic designer,2,recognition,16,sansforgetica,carry,word,Sure seen,1.0,seen,carry,1237.0,7.1204443723924875,50,difficult to read,30-04-2019 19:02
288,1,4,False,Graphic designer,1,lexical,1,arial,brease,non-word,Sure word,0.0,,,2428.0,7.794823152179389,70,easy to read,30-04-2019 18:49
289,1,4,False,Graphic designer,1,lexical,2,arial,airport,word,Sure word,1.0,,,1484.0,7.302496423727326,70,easy to read,30-04-2019 18:49
290,1,4,False,Graphic designer,1,lexical,3,arial,actually,word,Sure word,1.0,,,1435.0,7.268920128193722,70,easy to read,30-04-2019 18:49
291,1,4,False,Graphic designer,1,lexical,4,arial,areas,word,Sure word,1.0,,,1834.0,7.51425465281641,70,easy to read,30-04-2019 18:49
292,1,4,False,Graphic designer,1,lexical,5,arial,surely,word,Sure word,1.0,,,997.0,6.904750769961838,70,easy to read,30-04-2019 18:49
293,1,4,False,Graphic designer,1,lexical,6,arial,nords,non-word,Probably non-word,1.0,,,6277.0,8.744647438317532,70,easy to read,30-04-2019 18:49
294,1,4,False,Graphic designer,1,lexical,7,arial,easide,non-word,Sure non-word,1.0,,,4209.0,8.344980368770571,70,easy to read,30-04-2019 18:49
295,1,4,False,Graphic designer,1,lexical,8,arial,promised,word,Sure word,1.0,,,1971.0,7.58629630715272,70,easy to read,30-04-2019 18:49
296,1,4,False,Graphic designer,1,lexical,9,arial,earth,word,Sure word,1.0,,,1853.0,7.52456122628536,70,easy to read,30-04-2019 18:49
297,1,4,False,Graphic designer,1,lexical,10,arial,association,word,Sure word,1.0,,,1434.0,7.2682230211595655,70,easy to read,30-04-2019 18:49
298,1,4,False,Graphic designer,1,lexical,11,arial,blood,word,Sure word,1.0,,,1048.0,6.954638864880987,70,easy to read,30-04-2019 18:49
299,1,4,False,Graphic designer,1,lexical,12,arial,numals,non-word,Sure non-word,1.0,,,5991.0,8.698013622083925,70,easy to read,30-04-2019 18:49
300,1,4,False,Graphic designer,1,lexical,13,arial,ultomobile,non-word,Sure non-word,1.0,,,3597.0,8.187855443695623,70,easy to read,30-04-2019 18:49
301,1,4,False,Graphic designer,1,lexical,14,arial,lovely,word,Sure word,1.0,,,1634.0,7.3987862754199485,70,easy to read,30-04-2019 18:49
302,1,4,False,Graphic designer,1,lexical,15,arial,momeons,non-word,Probably non-word,1.0,,,4498.0,8.411388132519262,70,easy to read,30-04-2019 18:49
303,1,4,False,Graphic designer,1,lexical,16,arial,deeply,word,Sure word,1.0,,,1582.0,7.366445148327599,70,easy to read,30-04-2019 18:49
304,1,4,False,Graphic designer,1,lexical,17,arial,guarpapers,non-word,Probably non-word,1.0,,,3826.0,8.249575150000199,70,easy to read,30-04-2019 18:49
305,1,4,False,Graphic designer,1,lexical,18,arial,caughtly,non-word,Probably word,0.0,,,9984.0,9.208739090609209,70,easy to read,30-04-2019 18:49
306,1,4,False,Graphic designer,1,lexical,19,arial,unwitituted,non-word,Sure non-word,1.0,,,3073.0,8.030409562130485,70,easy to read,30-04-2019 18:49
307,1,4,False,Graphic designer,1,lexical,20,arial,mingine,non-word,Probably word,0.0,,,4052.0,8.306965865368573,70,easy to read,30-04-2019 18:49
308,1,4,False,Graphic designer,1,recognition,1,arial,brevided,non-word,Sure not seen,1.0,not seen,brease,6409.0,8.765458531504226,70,easy to read,30-04-2019 18:49
309,1,4,False,Graphic designer,1,recognition,2,arial,nords,non-word,Sure seen,1.0,seen,nords,2472.0,7.812782818577581,70,easy to read,30-04-2019 18:49
310,1,4,False,Graphic designer,1,recognition,3,arial,proper,word,Probably not seen,1.0,not seen,promised,6404.0,8.764678074116606,70,easy to read,30-04-2019 18:49
311,1,4,False,Graphic designer,1,recognition,4,arial,guarpapers,non-word,Sure seen,1.0,seen,guarpapers,2490.0,7.820037989458753,70,easy to read,30-04-2019 18:49
312,1,4,False,Graphic designer,1,recognition,5,arial,momorned,non-word,Probably not seen,1.0,not seen,momeons,8943.0,9.09862638234618,70,easy to read,30-04-2019 18:49
313,1,4,False,Graphic designer,1,recognition,6,arial,surface,word,Sure seen,0.0,not seen,surely,3856.0,8.257385655730436,70,easy to read,30-04-2019 18:49
314,1,4,False,Graphic designer,1,recognition,7,arial,lower,word,Sure not seen,1.0,not seen,lovely,3032.0,8.016977746762262,70,easy to read,30-04-2019 18:49
315,1,4,False,Graphic designer,1,recognition,8,arial,upbelf,non-word,Sure not seen,1.0,not seen,unwitituted,2594.0,7.860956364876389,70,easy to read,30-04-2019 18:49
316,1,4,False,Graphic designer,1,recognition,9,arial,earth,word,Sure seen,1.0,seen,earth,1762.0,7.474204806496124,70,easy to read,30-04-2019 18:49
317,1,4,False,Graphic designer,1,recognition,10,arial,board,word,Sure not seen,1.0,not seen,blood,2760.0,7.9229859587111955,70,easy to read,30-04-2019 18:49
318,1,4,False,Graphic designer,1,recognition,11,arial,ultomobile,non-word,Sure seen,1.0,seen,ultomobile,2056.0,7.628517626575055,70,easy to read,30-04-2019 18:49
319,1,4,False,Graphic designer,1,recognition,12,arial,airport,word,Sure seen,1.0,seen,airport,1306.0,7.174724309836376,70,easy to read,30-04-2019 18:49
320,1,4,False,Graphic designer,1,recognition,13,arial,deeply,word,Probably not seen,0.0,seen,deeply,5899.0,8.682538124003075,70,easy to read,30-04-2019 18:49
321,1,4,False,Graphic designer,1,recognition,14,arial,mingine,non-word,Sure seen,1.0,seen,mingine,2225.0,7.707512194600341,70,easy to read,30-04-2019 18:49
322,1,4,False,Graphic designer,1,recognition,15,arial,eassed,non-word,Sure not seen,1.0,not seen,easide,4010.0,8.296546520300614,70,easy to read,30-04-2019 18:49
323,1,4,False,Graphic designer,1,recognition,16,arial,areas,word,Sure seen,1.0,seen,areas,1916.0,7.557994958530806,70,easy to read,30-04-2019 18:49
324,1,4,False,Graphic designer,2,lexical,1,sansforgetica,prosequents,non-word,Probably word,0.0,,,4923.0,8.5016733797582,65,difficult to read,30-04-2019 18:49
325,1,4,False,Graphic designer,2,lexical,2,sansforgetica,likelf,non-word,Sure non-word,1.0,,,5157.0,8.548110294050959,65,difficult to read,30-04-2019 18:49
326,1,4,False,Graphic designer,2,lexical,3,sansforgetica,private,word,Sure word,1.0,,,1771.0,7.479299637782834,65,difficult to read,30-04-2019 18:49
327,1,4,False,Graphic designer,2,lexical,4,sansforgetica,arges,non-word,Probably non-word,1.0,,,3646.0,8.201385955238608,65,difficult to read,30-04-2019 18:49
328,1,4,False,Graphic designer,2,lexical,5,sansforgetica,start,word,Sure word,1.0,,,1674.0,7.422971251049421,65,difficult to read,30-04-2019 18:49
329,1,4,False,Graphic designer,2,lexical,6,sansforgetica,theory,word,Sure word,1.0,,,1924.0,7.562161631225652,65,difficult to read,30-04-2019 18:49
330,1,4,False,Graphic designer,2,lexical,7,sansforgetica,somehow,word,Sure word,1.0,,,1965.0,7.583247524303362,65,difficult to read,30-04-2019 18:49
331,1,4,False,Graphic designer,2,lexical,8,sansforgetica,sheir,non-word,Probably word,0.0,,,3475.0,8.153349757998892,65,difficult to read,30-04-2019 18:49
332,1,4,False,Graphic designer,2,lexical,9,sansforgetica,square,word,Sure word,1.0,,,1370.0,7.222566018822171,65,difficult to read,30-04-2019 18:49
333,1,4,False,Graphic designer,2,lexical,10,sansforgetica,found,word,Sure word,1.0,,,1032.0,6.939253946041508,65,difficult to read,30-04-2019 18:49
334,1,4,False,Graphic designer,2,lexical,11,sansforgetica,captain,word,Sure word,1.0,,,1124.0,7.024649030453636,65,difficult to read,30-04-2019 18:49
335,1,4,False,Graphic designer,2,lexical,12,sansforgetica,pollowing,non-word,Probably non-word,1.0,,,4317.0,8.370315995555478,65,difficult to read,30-04-2019 18:49
336,1,4,False,Graphic designer,2,lexical,13,sansforgetica,leaves,word,Sure word,1.0,,,1924.0,7.562161631225652,65,difficult to read,30-04-2019 18:49
337,1,4,False,Graphic designer,2,lexical,14,sansforgetica,considenon,non-word,Sure non-word,1.0,,,4649.0,8.444407421690585,65,difficult to read,30-04-2019 18:49
338,1,4,False,Graphic designer,2,lexical,15,sansforgetica,immediately,word,Sure word,1.0,,,1899.0,7.549082710812286,65,difficult to read,30-04-2019 18:49
339,1,4,False,Graphic designer,2,lexical,16,sansforgetica,indifferely,non-word,Sure non-word,1.0,,,3617.0,8.193400231952097,65,difficult to read,30-04-2019 18:49
340,1,4,False,Graphic designer,2,lexical,17,sansforgetica,childred,non-word,Sure non-word,1.0,,,3767.0,8.23403420769204,65,difficult to read,30-04-2019 18:49
341,1,4,False,Graphic designer,2,lexical,18,sansforgetica,repreased,non-word,Probably word,0.0,,,4195.0,8.341648618901306,65,difficult to read,30-04-2019 18:49
342,1,4,False,Graphic designer,2,lexical,19,sansforgetica,sucling,non-word,Probably non-word,1.0,,,2463.0,7.809135398120538,65,difficult to read,30-04-2019 18:49
343,1,4,False,Graphic designer,2,lexical,20,sansforgetica,within,word,Sure word,1.0,,,1900.0,7.549609165154532,65,difficult to read,30-04-2019 18:49
344,1,4,False,Graphic designer,2,recognition,1,sansforgetica,leaves,word,Sure seen,1.0,seen,leaves,2586.0,7.857867559331803,65,difficult to read,30-04-2019 18:49
345,1,4,False,Graphic designer,2,recognition,2,sansforgetica,statement,word,Sure not seen,1.0,not seen,start,4818.0,8.480114183174816,65,difficult to read,30-04-2019 18:49
346,1,4,False,Graphic designer,2,recognition,3,sansforgetica,therefore,word,Sure not seen,1.0,not seen,theory,1530.0,7.333023014386481,65,difficult to read,30-04-2019 18:49
347,1,4,False,Graphic designer,2,recognition,4,sansforgetica,within,word,Sure seen,1.0,seen,within,1746.0,7.465082736399547,65,difficult to read,30-04-2019 18:49
348,1,4,False,Graphic designer,2,recognition,5,sansforgetica,cittes,non-word,Sure not seen,1.0,not seen,childred,3482.0,8.155362120328135,65,difficult to read,30-04-2019 18:49
349,1,4,False,Graphic designer,2,recognition,6,sansforgetica,importance,word,Sure not seen,1.0,not seen,immediately,3388.0,8.127995055771946,65,difficult to read,30-04-2019 18:49
350,1,4,False,Graphic designer,2,recognition,7,sansforgetica,arould,non-word,Sure not seen,1.0,not seen,arges,1715.0,7.44716835960004,65,difficult to read,30-04-2019 18:49
351,1,4,False,Graphic designer,2,recognition,8,sansforgetica,individered,non-word,Sure seen,0.0,not seen,indifferely,2384.0,7.776535028185241,65,difficult to read,30-04-2019 18:49
352,1,4,False,Graphic designer,2,recognition,9,sansforgetica,somehow,word,Probably seen,1.0,seen,somehow,3112.0,8.043020885298283,65,difficult to read,30-04-2019 18:49
353,1,4,False,Graphic designer,2,recognition,10,sansforgetica,considenon,non-word,Sure seen,1.0,seen,considenon,2215.0,7.703007682479236,65,difficult to read,30-04-2019 18:49
354,1,4,False,Graphic designer,2,recognition,11,sansforgetica,linally,non-word,Sure not seen,1.0,not seen,likelf,2814.0,7.942362237674335,65,difficult to read,30-04-2019 18:49
355,1,4,False,Graphic designer,2,recognition,12,sansforgetica,sheir,non-word,Sure seen,1.0,seen,sheir,1786.0,7.487733761436444,65,difficult to read,30-04-2019 18:49
356,1,4,False,Graphic designer,2,recognition,13,sansforgetica,pollowing,non-word,Sure seen,1.0,seen,pollowing,1637.0,7.400620577371135,65,difficult to read,30-04-2019 18:49
357,1,4,False,Graphic designer,2,recognition,14,sansforgetica,career,word,Probably seen,0.0,not seen,captain,3930.0,8.276394704863307,65,difficult to read,30-04-2019 18:49
358,1,4,False,Graphic designer,2,recognition,15,sansforgetica,sucling,non-word,Sure seen,1.0,seen,sucling,1823.0,7.508238774678663,65,difficult to read,30-04-2019 18:49
359,1,4,False,Graphic designer,2,recognition,16,sansforgetica,found,word,Probably not seen,0.0,seen,found,1942.0,7.571473648851271,65,difficult to read,30-04-2019 18:49
360,1,5,False,Other designer,1,lexical,1,arial,early,word,Sure word,1.0,,,2041.0,7.621195162809845,79,very easy to read,29-04-2019 10:07
361,1,5,False,Other designer,1,lexical,2,arial,determined,word,Sure word,1.0,,,3385.0,8.127109185346375,79,very easy to read,29-04-2019 10:07
362,1,5,False,Other designer,1,lexical,3,arial,actually,word,Sure word,1.0,,,2669.0,7.889459149404524,79,very easy to read,29-04-2019 10:07
363,1,5,False,Other designer,1,lexical,4,arial,polloways,non-word,Probably non-word,1.0,,,15812.0,9.668524424416576,79,very easy to read,29-04-2019 10:07
364,1,5,False,Other designer,1,lexical,5,arial,alrence,non-word,Probably word,0.0,,,6957.0,8.847503625923641,79,very easy to read,29-04-2019 10:07
365,1,5,False,Other designer,1,lexical,6,arial,besides,word,Sure word,1.0,,,2195.0,7.693937325509272,79,very easy to read,29-04-2019 10:07
366,1,5,False,Other designer,1,lexical,7,arial,mobiever,non-word,Probably non-word,1.0,,,4462.0,8.403352374992478,79,very easy to read,29-04-2019 10:07
367,1,5,False,Other designer,1,lexical,8,arial,mothortere,non-word,Probably non-word,1.0,,,5237.0,8.563504094279487,79,very easy to read,29-04-2019 10:07
368,1,5,False,Other designer,1,lexical,9,arial,impording,non-word,Sure non-word,1.0,,,6899.0,8.839131752546109,79,very easy to read,29-04-2019 10:07
369,1,5,False,Other designer,1,lexical,10,arial,court,word,Sure word,1.0,,,2047.0,7.624130585661289,79,very easy to read,29-04-2019 10:07
370,1,5,False,Other designer,1,lexical,11,arial,centre,word,Sure word,1.0,,,1701.0,7.438971592395862,79,very easy to read,29-04-2019 10:07
371,1,5,False,Other designer,1,lexical,12,arial,villsite,non-word,Probably non-word,1.0,,,5465.0,8.60611940061064,79,very easy to read,29-04-2019 10:07
372,1,5,False,Other designer,1,lexical,13,arial,friend,word,Sure word,1.0,,,1537.0,7.337587743538596,79,very easy to read,29-04-2019 10:07
373,1,5,False,Other designer,1,lexical,14,arial,mothorate,non-word,Sure non-word,1.0,,,3038.0,8.018954683155718,79,very easy to read,29-04-2019 10:07
374,1,5,False,Other designer,1,lexical,15,arial,verving,non-word,Sure non-word,1.0,,,4484.0,8.40827078419205,79,very easy to read,29-04-2019 10:07
375,1,5,False,Other designer,1,lexical,16,arial,reasons,word,Sure word,1.0,,,1844.0,7.519692404116539,79,very easy to read,29-04-2019 10:07
376,1,5,False,Other designer,1,lexical,17,arial,feelings,word,Sure word,1.0,,,1546.0,7.343426229147367,79,very easy to read,29-04-2019 10:07
377,1,5,False,Other designer,1,lexical,18,arial,natender,non-word,Sure non-word,1.0,,,3625.0,8.195609567288775,79,very easy to read,29-04-2019 10:07
378,1,5,False,Other designer,1,lexical,19,arial,accident,word,Sure word,1.0,,,1730.0,7.455876687491824,79,very easy to read,29-04-2019 10:07
379,1,5,False,Other designer,1,lexical,20,arial,hamething,non-word,Sure non-word,1.0,,,4271.0,8.359603270841466,79,very easy to read,29-04-2019 10:07
380,1,5,False,Other designer,1,recognition,1,arial,alteriously,non-word,Sure not seen,1.0,not seen,alrence,6715.0,8.812099108957337,79,very easy to read,29-04-2019 10:07
381,1,5,False,Other designer,1,recognition,2,arial,determined,word,Sure seen,1.0,seen,determined,1981.0,7.591357046698551,79,very easy to read,29-04-2019 10:07
382,1,5,False,Other designer,1,recognition,3,arial,motter,non-word,Sure not seen,1.0,not seen,mothortere,4599.0,8.433594167539924,79,very easy to read,29-04-2019 10:07
383,1,5,False,Other designer,1,recognition,4,arial,hamething,non-word,Probably seen,1.0,seen,hamething,6041.0,8.706324840138741,79,very easy to read,29-04-2019 10:07
384,1,5,False,Other designer,1,recognition,5,arial,according,word,Sure not seen,1.0,not seen,accident,3145.0,8.05356916913454,79,very easy to read,29-04-2019 10:07
385,1,5,False,Other designer,1,recognition,6,arial,natender,non-word,Sure seen,1.0,seen,natender,3113.0,8.043342170441608,79,very easy to read,29-04-2019 10:07
386,1,5,False,Other designer,1,recognition,7,arial,impording,non-word,Sure seen,1.0,seen,impording,2258.0,7.722234744709607,79,very easy to read,29-04-2019 10:07
387,1,5,False,Other designer,1,recognition,8,arial,centre,word,Sure seen,1.0,seen,centre,1502.0,7.31455283232408,79,very easy to read,29-04-2019 10:07
388,1,5,False,Other designer,1,recognition,9,arial,polloways,non-word,Sure seen,1.0,seen,polloways,1773.0,7.480428306074208,79,very easy to read,29-04-2019 10:07
389,1,5,False,Other designer,1,recognition,10,arial,reasons,word,Sure seen,1.0,seen,reasons,1594.0,7.374001859350161,79,very easy to read,29-04-2019 10:07
390,1,5,False,Other designer,1,recognition,11,arial,friendly,word,Sure not seen,1.0,not seen,friend,2938.0,7.9854843567338225,79,very easy to read,29-04-2019 10:07
391,1,5,False,Other designer,1,recognition,12,arial,added,word,Sure not seen,1.0,not seen,actually,1919.0,7.5595594960077,79,very easy to read,29-04-2019 10:07
392,1,5,False,Other designer,1,recognition,13,arial,victurs,non-word,Sure not seen,1.0,not seen,verving,1673.0,7.422373700986824,79,very easy to read,29-04-2019 10:07
393,1,5,False,Other designer,1,recognition,14,arial,early,word,Sure seen,1.0,seen,early,1952.0,7.5766097669730375,79,very easy to read,29-04-2019 10:07
394,1,5,False,Other designer,1,recognition,15,arial,violetic,non-word,Sure not seen,1.0,not seen,villsite,2896.0,7.971085753505607,79,very easy to read,29-04-2019 10:07
395,1,5,False,Other designer,1,recognition,16,arial,better,word,Sure not seen,1.0,not seen,besides,2247.0,7.717351272185329,79,very easy to read,29-04-2019 10:07
396,1,5,False,Other designer,2,lexical,1,sansforgetica,scholopment,non-word,Sure non-word,1.0,,,13133.0,9.48288342558516,76,difficult to read,29-04-2019 10:07
397,1,5,False,Other designer,2,lexical,2,sansforgetica,birds,word,Sure word,1.0,,,1691.0,7.43307534889858,76,difficult to read,29-04-2019 10:07
398,1,5,False,Other designer,2,lexical,3,sansforgetica,clesh,non-word,Sure non-word,1.0,,,3658.0,8.204671828950811,76,difficult to read,29-04-2019 10:07
399,1,5,False,Other designer,2,lexical,4,sansforgetica,individual,word,Sure word,1.0,,,1601.0,7.3783837129967145,76,difficult to read,29-04-2019 10:07
400,1,5,False,Other designer,2,lexical,5,sansforgetica,support,word,Sure word,1.0,,,1649.0,7.407924322559599,76,difficult to read,29-04-2019 10:07
401,1,5,False,Other designer,2,lexical,6,sansforgetica,dangerous,word,Sure word,1.0,,,2033.0,7.617267813628347,76,difficult to read,29-04-2019 10:07
402,1,5,False,Other designer,2,lexical,7,sansforgetica,feepped,non-word,Sure non-word,1.0,,,4009.0,8.296297112642508,76,difficult to read,29-04-2019 10:07
403,1,5,False,Other designer,2,lexical,8,sansforgetica,better,word,Sure word,1.0,,,1597.0,7.3758821482150125,76,difficult to read,29-04-2019 10:07
404,1,5,False,Other designer,2,lexical,9,sansforgetica,ninished,non-word,Probably non-word,1.0,,,8309.0,9.02509454366498,76,difficult to read,29-04-2019 10:07
405,1,5,False,Other designer,2,lexical,10,sansforgetica,becruit,non-word,Sure non-word,1.0,,,5970.0,8.694502206386648,76,difficult to read,29-04-2019 10:07
406,1,5,False,Other designer,2,lexical,11,sansforgetica,daily,word,Sure word,1.0,,,1750.0,7.4673710669175595,76,difficult to read,29-04-2019 10:07
407,1,5,False,Other designer,2,lexical,12,sansforgetica,master,word,Sure word,1.0,,,3036.0,8.01829613851552,76,difficult to read,29-04-2019 10:07
408,1,5,False,Other designer,2,lexical,13,sansforgetica,durprology,non-word,Probably word,0.0,,,5680.0,8.644706511715198,76,difficult to read,29-04-2019 10:07
409,1,5,False,Other designer,2,lexical,14,sansforgetica,succerdly,non-word,Probably non-word,1.0,,,4298.0,8.365905077202456,76,difficult to read,29-04-2019 10:07
410,1,5,False,Other designer,2,lexical,15,sansforgetica,noise,word,Sure word,1.0,,,1758.0,7.471932078245122,76,difficult to read,29-04-2019 10:07
411,1,5,False,Other designer,2,lexical,16,sansforgetica,rateries,non-word,Sure non-word,1.0,,,4500.0,8.411832675758411,76,difficult to read,29-04-2019 10:07
412,1,5,False,Other designer,2,lexical,17,sansforgetica,offered,word,Sure word,1.0,,,1958.0,7.579678823090456,76,difficult to read,29-04-2019 10:07
413,1,5,False,Other designer,2,lexical,18,sansforgetica,explitition,non-word,Probably non-word,1.0,,,5533.0,8.618485442898109,76,difficult to read,29-04-2019 10:07
414,1,5,False,Other designer,2,lexical,19,sansforgetica,papers,word,Sure word,1.0,,,1588.0,7.370230641807081,76,difficult to read,29-04-2019 10:07
415,1,5,False,Other designer,2,lexical,20,sansforgetica,impreit,non-word,Probably non-word,1.0,,,3918.0,8.273336598504486,76,difficult to read,29-04-2019 10:07
416,1,5,False,Other designer,2,recognition,1,sansforgetica,papers,word,Sure seen,1.0,seen,papers,2017.0,7.6093665379542115,76,difficult to read,29-04-2019 10:07
417,1,5,False,Other designer,2,recognition,2,sansforgetica,individual,word,Sure seen,1.0,seen,individual,1550.0,7.346010209913293,76,difficult to read,29-04-2019 10:07
418,1,5,False,Other designer,2,recognition,3,sansforgetica,impreit,non-word,Sure seen,1.0,seen,impreit,4769.0,8.469891918298224,76,difficult to read,29-04-2019 10:07
419,1,5,False,Other designer,2,recognition,4,sansforgetica,daily,word,Sure seen,1.0,seen,daily,1682.0,7.427738840532894,76,difficult to read,29-04-2019 10:07
420,1,5,False,Other designer,2,recognition,5,sansforgetica,begar,non-word,Sure not seen,1.0,not seen,becruit,1834.0,7.51425465281641,76,difficult to read,29-04-2019 10:07
421,1,5,False,Other designer,2,recognition,6,sansforgetica,nobit,non-word,Sure not seen,1.0,not seen,ninished,2798.0,7.936660155225426,76,difficult to read,29-04-2019 10:07
422,1,5,False,Other designer,2,recognition,7,sansforgetica,dwayed,non-word,Sure not seen,1.0,not seen,durprology,2025.0,7.613324979540639,76,difficult to read,29-04-2019 10:07
423,1,5,False,Other designer,2,recognition,8,sansforgetica,birth,word,Sure not seen,1.0,not seen,birds,2097.0,7.64826303090192,76,difficult to read,29-04-2019 10:07
424,1,5,False,Other designer,2,recognition,9,sansforgetica,explitition,non-word,Sure seen,1.0,seen,explitition,1655.0,7.411556287811163,76,difficult to read,29-04-2019 10:07
425,1,5,False,Other designer,2,recognition,10,sansforgetica,succerdly,non-word,Sure seen,1.0,seen,succerdly,2254.0,7.720461694599722,76,difficult to read,29-04-2019 10:07
426,1,5,False,Other designer,2,recognition,11,sansforgetica,realicult,non-word,Sure not seen,1.0,not seen,rateries,3494.0,8.158802490694002,76,difficult to read,29-04-2019 10:07
427,1,5,False,Other designer,2,recognition,12,sansforgetica,supposed,word,Sure not seen,1.0,not seen,support,1955.0,7.578145472419466,76,difficult to read,29-04-2019 10:07
428,1,5,False,Other designer,2,recognition,13,sansforgetica,between,word,Sure not seen,1.0,not seen,better,1679.0,7.425953657077541,76,difficult to read,29-04-2019 10:07
429,1,5,False,Other designer,2,recognition,14,sansforgetica,normal,word,Sure not seen,1.0,not seen,noise,1693.0,7.4342573821331355,76,difficult to read,29-04-2019 10:07
430,1,5,False,Other designer,2,recognition,15,sansforgetica,feepped,non-word,Sure seen,1.0,seen,feepped,1946.0,7.57353126274595,76,difficult to read,29-04-2019 10:07
431,1,5,False,Other designer,2,recognition,16,sansforgetica,offered,word,Sure not seen,0.0,seen,offered,1604.0,7.38025578842646,76,difficult to read,29-04-2019 10:07
432,1,6,False,Other designer,1,lexical,1,arial,tempriation,non-word,Probably non-word,1.0,,,5260.0,8.567886305731756,15,very easy to read,29-04-2019 08:52
433,1,6,False,Other designer,1,lexical,2,arial,immediative,non-word,Probably non-word,1.0,,,14827.0,9.604205122018026,15,very easy to read,29-04-2019 08:52
434,1,6,False,Other designer,1,lexical,3,arial,explowed,non-word,Probably non-word,1.0,,,2345.0,7.76004068088038,15,very easy to read,29-04-2019 08:52
435,1,6,False,Other designer,1,lexical,4,arial,furning,non-word,Probably non-word,1.0,,,2602.0,7.86403565907245,15,very easy to read,29-04-2019 08:52
436,1,6,False,Other designer,1,lexical,5,arial,importance,word,Sure word,1.0,,,2247.0,7.717351272185329,15,very easy to read,29-04-2019 08:52
437,1,6,False,Other designer,1,lexical,6,arial,mayer,non-word,Sure word,0.0,,,3256.0,8.08825472712243,15,very easy to read,29-04-2019 08:52
438,1,6,False,Other designer,1,lexical,7,arial,stared,word,Sure word,1.0,,,2023.0,7.612336837167746,15,very easy to read,29-04-2019 08:52
439,1,6,False,Other designer,1,lexical,8,arial,curibe,non-word,Probably non-word,1.0,,,2760.0,7.9229859587111955,15,very easy to read,29-04-2019 08:52
440,1,6,False,Other designer,1,lexical,9,arial,planning,word,Sure word,1.0,,,2071.0,7.635786861395585,15,very easy to read,29-04-2019 08:52
441,1,6,False,Other designer,1,lexical,10,arial,vegetitors,non-word,Probably non-word,1.0,,,6205.0,8.733110697638708,15,very easy to read,29-04-2019 08:52
442,1,6,False,Other designer,1,lexical,11,arial,waste,word,Sure word,1.0,,,2035.0,7.618251097876695,15,very easy to read,29-04-2019 08:52
443,1,6,False,Other designer,1,lexical,12,arial,wished,word,Sure word,1.0,,,1507.0,7.317876198626496,15,very easy to read,29-04-2019 08:52
444,1,6,False,Other designer,1,lexical,13,arial,returned,word,Sure word,1.0,,,1791.0,7.490529402060711,15,very easy to read,29-04-2019 08:52
445,1,6,False,Other designer,1,lexical,14,arial,catuirented,non-word,Probably non-word,1.0,,,4162.0,8.33375100695358,15,very easy to read,29-04-2019 08:52
446,1,6,False,Other designer,1,lexical,15,arial,general,word,Sure word,1.0,,,1670.0,7.4205789054108005,15,very easy to read,29-04-2019 08:52
447,1,6,False,Other designer,1,lexical,16,arial,promised,word,Sure word,1.0,,,1236.0,7.119635638017636,15,very easy to read,29-04-2019 08:52
448,1,6,False,Other designer,1,lexical,17,arial,sugmaling,non-word,Probably non-word,1.0,,,3394.0,8.129764445794171,15,very easy to read,29-04-2019 08:52
449,1,6,False,Other designer,1,lexical,18,arial,rescributed,non-word,Probably word,0.0,,,4369.0,8.382289428951436,15,very easy to read,29-04-2019 08:52
450,1,6,False,Other designer,1,lexical,19,arial,daily,word,Sure word,1.0,,,1392.0,7.238496840894365,15,very easy to read,29-04-2019 08:52
451,1,6,False,Other designer,1,lexical,20,arial,surely,word,Sure word,1.0,,,1152.0,7.049254841255837,15,very easy to read,29-04-2019 08:52
452,1,6,False,Other designer,1,recognition,1,arial,proper,word,Sure not seen,1.0,not seen,promised,5449.0,8.603187384583098,15,very easy to read,29-04-2019 08:52
453,1,6,False,Other designer,1,recognition,2,arial,curonoms,non-word,Sure not seen,1.0,not seen,curibe,2413.0,7.7886260656250315,15,very easy to read,29-04-2019 08:52
454,1,6,False,Other designer,1,recognition,3,arial,impossible,word,Sure not seen,1.0,not seen,importance,2004.0,7.602900462204755,15,very easy to read,29-04-2019 08:52
455,1,6,False,Other designer,1,recognition,4,arial,tersuact,non-word,Sure not seen,1.0,not seen,tempriation,2106.0,7.652545692693921,15,very easy to read,29-04-2019 08:52
456,1,6,False,Other designer,1,recognition,5,arial,surely,word,Sure seen,1.0,seen,surely,2125.0,7.661527081358517,15,very easy to read,29-04-2019 08:52
457,1,6,False,Other designer,1,recognition,6,arial,wished,word,Sure seen,1.0,seen,wished,1652.0,7.409741954080923,15,very easy to read,29-04-2019 08:52
458,1,6,False,Other designer,1,recognition,7,arial,returned,word,Sure seen,1.0,seen,returned,1225.0,7.110696122978827,15,very easy to read,29-04-2019 08:52
459,1,6,False,Other designer,1,recognition,8,arial,vegetitors,non-word,Sure seen,1.0,seen,vegetitors,1695.0,7.43543801981455,15,very easy to read,29-04-2019 08:52
460,1,6,False,Other designer,1,recognition,9,arial,sugmaling,non-word,Sure seen,1.0,seen,sugmaling,1125.0,7.025538314638521,15,very easy to read,29-04-2019 08:52
461,1,6,False,Other designer,1,recognition,10,arial,watching,word,Sure not seen,1.0,not seen,waste,2244.0,7.716015266642587,15,very easy to read,29-04-2019 08:52
462,1,6,False,Other designer,1,recognition,11,arial,stared,word,Sure seen,1.0,seen,stared,1747.0,7.465655310134056,15,very easy to read,29-04-2019 08:52
463,1,6,False,Other designer,1,recognition,12,arial,immediative,non-word,Sure seen,1.0,seen,immediative,1433.0,7.267525427828172,15,very easy to read,29-04-2019 08:52
464,1,6,False,Other designer,1,recognition,13,arial,mayer,non-word,Sure seen,1.0,seen,mayer,1087.0,6.99117688712121,15,very easy to read,29-04-2019 08:52
465,1,6,False,Other designer,1,recognition,14,arial,generally,word,Sure not seen,1.0,not seen,general,2449.0,7.803435056952168,15,very easy to read,29-04-2019 08:52
466,1,6,False,Other designer,1,recognition,15,arial,resightered,non-word,Sure not seen,1.0,not seen,rescributed,2533.0,7.837159650001675,15,very easy to read,29-04-2019 08:52
467,1,6,False,Other designer,1,recognition,16,arial,explowing,non-word,Sure seen,0.0,not seen,explowed,2330.0,7.753623546559746,15,very easy to read,29-04-2019 08:52
468,1,6,False,Other designer,2,lexical,1,sansforgetica,round,word,Sure word,1.0,,,3807.0,8.244596756382498,15,very difficult to read,29-04-2019 08:52
469,1,6,False,Other designer,2,lexical,2,sansforgetica,actions,word,Sure word,1.0,,,2260.0,7.723120092266331,15,very difficult to read,29-04-2019 08:52
470,1,6,False,Other designer,2,lexical,3,sansforgetica,mental,word,Sure word,1.0,,,1619.0,7.389563953677635,15,very difficult to read,29-04-2019 08:52
471,1,6,False,Other designer,2,lexical,4,sansforgetica,bridge,word,Sure word,1.0,,,1323.0,7.187657164114956,15,very difficult to read,29-04-2019 08:52
472,1,6,False,Other designer,2,lexical,5,sansforgetica,gighting,non-word,Probably non-word,1.0,,,6024.0,8.703506769479729,15,very difficult to read,29-04-2019 08:52
473,1,6,False,Other designer,2,lexical,6,sansforgetica,whole,word,Sure word,1.0,,,2064.0,7.6324011266014535,15,very difficult to read,29-04-2019 08:52
474,1,6,False,Other designer,2,lexical,7,sansforgetica,visher,non-word,Sure word,0.0,,,1625.0,7.393263094763838,15,very difficult to read,29-04-2019 08:52
475,1,6,False,Other designer,2,lexical,8,sansforgetica,prices,word,Sure word,1.0,,,3027.0,8.01532730902172,15,very difficult to read,29-04-2019 08:52
476,1,6,False,Other designer,2,lexical,9,sansforgetica,dissehons,non-word,Probably non-word,1.0,,,2913.0,7.976938756959434,15,very difficult to read,29-04-2019 08:52
477,1,6,False,Other designer,2,lexical,10,sansforgetica,heroad,non-word,Probably non-word,1.0,,,3486.0,8.156510226079966,15,very difficult to read,29-04-2019 08:52
478,1,6,False,Other designer,2,lexical,11,sansforgetica,undonestes,non-word,Probably non-word,1.0,,,2760.0,7.9229859587111955,15,very difficult to read,29-04-2019 08:52
479,1,6,False,Other designer,2,lexical,12,sansforgetica,internably,non-word,Probably non-word,1.0,,,2898.0,7.971776122880628,15,very difficult to read,29-04-2019 08:52
480,1,6,False,Other designer,2,lexical,13,sansforgetica,great,word,Sure word,1.0,,,2250.0,7.718685495198466,15,very difficult to read,29-04-2019 08:52
481,1,6,False,Other designer,2,lexical,14,sansforgetica,local,word,Sure word,1.0,,,1128.0,7.028201432058005,15,very difficult to read,29-04-2019 08:52
482,1,6,False,Other designer,2,lexical,15,sansforgetica,amerying,non-word,Probably non-word,1.0,,,2642.0,7.879291485082271,15,very difficult to read,29-04-2019 08:52
483,1,6,False,Other designer,2,lexical,16,sansforgetica,immediately,word,Sure word,1.0,,,2596.0,7.86172707782398,15,very difficult to read,29-04-2019 08:52
484,1,6,False,Other designer,2,lexical,17,sansforgetica,sprairen,non-word,Probably non-word,1.0,,,2961.0,7.993282328101591,15,very difficult to read,29-04-2019 08:52
485,1,6,False,Other designer,2,lexical,18,sansforgetica,would,word,Sure word,1.0,,,2450.0,7.803843303538772,15,very difficult to read,29-04-2019 08:52
486,1,6,False,Other designer,2,lexical,19,sansforgetica,outel,non-word,Probably non-word,1.0,,,2614.0,7.868636894184167,15,very difficult to read,29-04-2019 08:52
487,1,6,False,Other designer,2,lexical,20,sansforgetica,susining,non-word,Probably non-word,1.0,,,2349.0,7.761744984658913,15,very difficult to read,29-04-2019 08:52
488,1,6,False,Other designer,2,recognition,1,sansforgetica,great,word,Sure seen,1.0,seen,great,3331.0,8.11102783819368,15,very difficult to read,29-04-2019 08:52
489,1,6,False,Other designer,2,recognition,2,sansforgetica,bridge,word,Sure seen,1.0,seen,bridge,1206.0,7.095064377287131,15,very difficult to read,29-04-2019 08:52
490,1,6,False,Other designer,2,recognition,3,sansforgetica,hervent,non-word,Sure not seen,1.0,not seen,heroad,2409.0,7.786967002614872,15,very difficult to read,29-04-2019 08:52
491,1,6,False,Other designer,2,recognition,4,sansforgetica,mental,word,Sure seen,1.0,seen,mental,1921.0,7.560601162768557,15,very difficult to read,29-04-2019 08:52
492,1,6,False,Other designer,2,recognition,5,sansforgetica,prime,word,Sure not seen,1.0,not seen,prices,1852.0,7.524021415206125,15,very difficult to read,29-04-2019 08:52
493,1,6,False,Other designer,2,recognition,6,sansforgetica,syllection,non-word,Sure not seen,1.0,not seen,susining,1445.0,7.275864600546533,15,very difficult to read,29-04-2019 08:52
494,1,6,False,Other designer,2,recognition,7,sansforgetica,internably,non-word,Sure seen,1.0,seen,internably,2112.0,7.655390644826152,15,very difficult to read,29-04-2019 08:52
495,1,6,False,Other designer,2,recognition,8,sansforgetica,amerying,non-word,Sure seen,1.0,seen,amerying,1347.0,7.205635176410364,15,very difficult to read,29-04-2019 08:52
496,1,6,False,Other designer,2,recognition,9,sansforgetica,actions,word,Sure seen,1.0,seen,actions,1213.0,7.10085190894405,15,very difficult to read,29-04-2019 08:52
497,1,6,False,Other designer,2,recognition,10,sansforgetica,sprikelf,non-word,Sure not seen,1.0,not seen,sprairen,2217.0,7.7039102096163115,15,very difficult to read,29-04-2019 08:52
498,1,6,False,Other designer,2,recognition,11,sansforgetica,undonestes,non-word,Sure seen,1.0,seen,undonestes,2372.0,7.771488760117616,15,very difficult to read,29-04-2019 08:52
499,1,6,False,Other designer,2,recognition,12,sansforgetica,whose,word,Sure not seen,1.0,not seen,whole,2441.0,7.80016307039296,15,very difficult to read,29-04-2019 08:52
500,1,6,False,Other designer,2,recognition,13,sansforgetica,girayed,non-word,Sure not seen,1.0,not seen,gighting,1247.0,7.1284959456800365,15,very difficult to read,29-04-2019 08:52
501,1,6,False,Other designer,2,recognition,14,sansforgetica,royal,word,Sure not seen,1.0,not seen,round,1064.0,6.96979066990159,15,very difficult to read,29-04-2019 08:52
502,1,6,False,Other designer,2,recognition,15,sansforgetica,longer,word,Sure not seen,1.0,not seen,local,1051.0,6.957497370876951,15,very difficult to read,29-04-2019 08:52
503,1,6,False,Other designer,2,recognition,16,sansforgetica,dissehons,non-word,Sure seen,1.0,seen,dissehons,2197.0,7.69484807238461,15,very difficult to read,29-04-2019 08:52
504,1,7,False,Letter designer,1,lexical,1,arial,peoply,non-word,Sure non-word,1.0,,,2882.0,7.966239776559467,59,easy to read,29-04-2019 04:08
505,1,7,False,Letter designer,1,lexical,2,arial,teliquely,non-word,Sure non-word,1.0,,,1932.0,7.566311014772463,59,easy to read,29-04-2019 04:08
506,1,7,False,Letter designer,1,lexical,3,arial,lonour,non-word,Sure non-word,1.0,,,1801.0,7.496097345175956,59,easy to read,29-04-2019 04:08
507,1,7,False,Letter designer,1,lexical,4,arial,undustomes,non-word,Sure non-word,1.0,,,1271.0,7.147559271189454,59,easy to read,29-04-2019 04:08
508,1,7,False,Letter designer,1,lexical,5,arial,advice,word,Sure word,1.0,,,2071.0,7.635786861395585,59,easy to read,29-04-2019 04:08
509,1,7,False,Letter designer,1,lexical,6,arial,bottle,word,Sure word,1.0,,,1452.0,7.280697195384741,59,easy to read,29-04-2019 04:08
510,1,7,False,Letter designer,1,lexical,7,arial,stage,word,Sure word,1.0,,,1462.0,7.2875606403097235,59,easy to read,29-04-2019 04:08
511,1,7,False,Letter designer,1,lexical,8,arial,prought,non-word,Sure non-word,1.0,,,2541.0,7.840312983320164,59,easy to read,29-04-2019 04:08
512,1,7,False,Letter designer,1,lexical,9,arial,linangently,non-word,Sure non-word,1.0,,,3634.0,8.198089248956116,59,easy to read,29-04-2019 04:08
513,1,7,False,Letter designer,1,lexical,10,arial,market,word,Sure word,1.0,,,2328.0,7.752764808851328,59,easy to read,29-04-2019 04:08
514,1,7,False,Letter designer,1,lexical,11,arial,military,word,Sure word,1.0,,,1536.0,7.336936913707618,59,easy to read,29-04-2019 04:08
515,1,7,False,Letter designer,1,lexical,12,arial,behind,word,Sure word,1.0,,,918.0,6.822197390620491,59,easy to read,29-04-2019 04:08
516,1,7,False,Letter designer,1,lexical,13,arial,condamenced,non-word,Sure non-word,1.0,,,4749.0,8.465689348549121,59,easy to read,29-04-2019 04:08
517,1,7,False,Letter designer,1,lexical,14,arial,project,word,Sure word,1.0,,,2472.0,7.812782818577581,59,easy to read,29-04-2019 04:08
518,1,7,False,Letter designer,1,lexical,15,arial,briends,non-word,Sure non-word,1.0,,,1754.0,7.469654172932128,59,easy to read,29-04-2019 04:08
519,1,7,False,Letter designer,1,lexical,16,arial,walked,word,Sure word,1.0,,,2266.0,7.725771441587952,59,easy to read,29-04-2019 04:08
520,1,7,False,Letter designer,1,lexical,17,arial,secent,non-word,Sure non-word,1.0,,,2306.0,7.743269700829004,59,easy to read,29-04-2019 04:08
521,1,7,False,Letter designer,1,lexical,18,arial,giving,word,Sure word,1.0,,,1502.0,7.31455283232408,59,easy to read,29-04-2019 04:08
522,1,7,False,Letter designer,1,lexical,19,arial,morward,non-word,Sure non-word,1.0,,,1766.0,7.476472381163905,59,easy to read,29-04-2019 04:08
523,1,7,False,Letter designer,1,lexical,20,arial,supposed,word,Sure word,1.0,,,1582.0,7.366445148327599,59,easy to read,29-04-2019 04:08
524,1,7,False,Letter designer,1,recognition,1,arial,condiers,non-word,Sure not seen,1.0,not seen,condamenced,6044.0,8.70682132339263,59,easy to read,29-04-2019 04:08
525,1,7,False,Letter designer,1,recognition,2,arial,perdly,non-word,Sure not seen,1.0,not seen,peoply,1674.0,7.422971251049421,59,easy to read,29-04-2019 04:08
526,1,7,False,Letter designer,1,recognition,3,arial,surely,word,Probably seen,0.0,not seen,supposed,3622.0,8.19478163844336,59,easy to read,29-04-2019 04:08
527,1,7,False,Letter designer,1,recognition,4,arial,military,word,Probably seen,1.0,seen,military,1692.0,7.433666540166168,59,easy to read,29-04-2019 04:08
528,1,7,False,Letter designer,1,recognition,5,arial,loote,non-word,Sure not seen,1.0,not seen,lonour,2903.0,7.97349996402463,59,easy to read,29-04-2019 04:08
529,1,7,False,Letter designer,1,recognition,6,arial,bottom,word,Sure not seen,1.0,not seen,bottle,4309.0,8.368461137615839,59,easy to read,29-04-2019 04:08
530,1,7,False,Letter designer,1,recognition,7,arial,advice,word,Sure seen,1.0,seen,advice,1535.0,7.336285660021297,59,easy to read,29-04-2019 04:08
531,1,7,False,Letter designer,1,recognition,8,arial,morward,non-word,Sure seen,1.0,seen,morward,1542.0,7.340835554123275,59,easy to read,29-04-2019 04:08
532,1,7,False,Letter designer,1,recognition,9,arial,teliquely,non-word,Sure seen,1.0,seen,teliquely,1433.0,7.267525427828172,59,easy to read,29-04-2019 04:08
533,1,7,False,Letter designer,1,recognition,10,arial,being,word,Sure seen,0.0,not seen,behind,1976.0,7.588829878307813,59,easy to read,29-04-2019 04:08
534,1,7,False,Letter designer,1,recognition,11,arial,project,word,Sure seen,1.0,seen,project,1225.0,7.110696122978827,59,easy to read,29-04-2019 04:08
535,1,7,False,Letter designer,1,recognition,12,arial,sechniall,non-word,Sure not seen,1.0,not seen,secent,1663.0,7.416378479192928,59,easy to read,29-04-2019 04:08
536,1,7,False,Letter designer,1,recognition,13,arial,stage,word,Sure seen,1.0,seen,stage,1446.0,7.27655640271871,59,easy to read,29-04-2019 04:08
537,1,7,False,Letter designer,1,recognition,14,arial,briends,non-word,Sure seen,1.0,seen,briends,1185.0,7.077498053569231,59,easy to read,29-04-2019 04:08
538,1,7,False,Letter designer,1,recognition,15,arial,marriage,word,Probably not seen,1.0,not seen,market,1974.0,7.587817219993427,59,easy to read,29-04-2019 04:08
539,1,7,False,Letter designer,1,recognition,16,arial,prought,non-word,Sure seen,1.0,seen,prought,1525.0,7.329749689041512,59,easy to read,29-04-2019 04:08
540,1,7,False,Letter designer,2,lexical,1,sansforgetica,worelete,non-word,Sure non-word,1.0,,,7222.0,8.884887201837403,50,difficult to read,29-04-2019 04:08
541,1,7,False,Letter designer,2,lexical,2,sansforgetica,becomes,word,Sure word,1.0,,,2335.0,7.755767170102998,50,difficult to read,29-04-2019 04:08
542,1,7,False,Letter designer,2,lexical,3,sansforgetica,within,word,Sure word,1.0,,,1819.0,7.506042178518122,50,difficult to read,29-04-2019 04:08
543,1,7,False,Letter designer,2,lexical,4,sansforgetica,disgrestors,non-word,Sure non-word,1.0,,,2676.0,7.892078421248119,50,difficult to read,29-04-2019 04:08
544,1,7,False,Letter designer,2,lexical,5,sansforgetica,changing,word,Sure word,1.0,,,1436.0,7.269616749608169,50,difficult to read,29-04-2019 04:08
545,1,7,False,Letter designer,2,lexical,6,sansforgetica,crepards,non-word,Sure non-word,1.0,,,1994.0,7.597897950521784,50,difficult to read,29-04-2019 04:08
546,1,7,False,Letter designer,2,lexical,7,sansforgetica,still,word,Sure word,1.0,,,1693.0,7.4342573821331355,50,difficult to read,29-04-2019 04:08
547,1,7,False,Letter designer,2,lexical,8,sansforgetica,airalow,non-word,Sure non-word,1.0,,,2194.0,7.693481640835175,50,difficult to read,29-04-2019 04:08
548,1,7,False,Letter designer,2,lexical,9,sansforgetica,nobit,non-word,Sure non-word,1.0,,,2574.0,7.853216388156072,50,difficult to read,29-04-2019 04:08
549,1,7,False,Letter designer,2,lexical,10,sansforgetica,opinion,word,Sure word,1.0,,,1649.0,7.407924322559599,50,difficult to read,29-04-2019 04:08
550,1,7,False,Letter designer,2,lexical,11,sansforgetica,empreases,non-word,Sure non-word,1.0,,,1916.0,7.557994958530806,50,difficult to read,29-04-2019 04:08
551,1,7,False,Letter designer,2,lexical,12,sansforgetica,guarpapers,non-word,Sure non-word,1.0,,,2017.0,7.6093665379542115,50,difficult to read,29-04-2019 04:08
552,1,7,False,Letter designer,2,lexical,13,sansforgetica,least,word,Sure word,1.0,,,1689.0,7.4318919168078,50,difficult to read,29-04-2019 04:08
553,1,7,False,Letter designer,2,lexical,14,sansforgetica,saying,word,Sure word,1.0,,,1678.0,7.425357887027151,50,difficult to read,29-04-2019 04:08
554,1,7,False,Letter designer,2,lexical,15,sansforgetica,differsive,non-word,Sure non-word,1.0,,,2170.0,7.682482446534506,50,difficult to read,29-04-2019 04:08
555,1,7,False,Letter designer,2,lexical,16,sansforgetica,secret,word,Sure word,1.0,,,1959.0,7.580189417944541,50,difficult to read,29-04-2019 04:08
556,1,7,False,Letter designer,2,lexical,17,sansforgetica,shass,non-word,Sure non-word,1.0,,,2057.0,7.6290038896529575,50,difficult to read,29-04-2019 04:08
557,1,7,False,Letter designer,2,lexical,18,sansforgetica,besides,word,Sure word,1.0,,,1336.0,7.197435354096591,50,difficult to read,29-04-2019 04:08
558,1,7,False,Letter designer,2,lexical,19,sansforgetica,heavily,word,Sure word,1.0,,,1260.0,7.138866999945524,50,difficult to read,29-04-2019 04:08
559,1,7,False,Letter designer,2,lexical,20,sansforgetica,sategontly,non-word,Sure non-word,1.0,,,1934.0,7.56734567601324,50,difficult to read,29-04-2019 04:08
560,1,7,False,Letter designer,2,recognition,1,sansforgetica,guars,non-word,Probably seen,0.0,not seen,guarpapers,2764.0,7.92443418488756,50,difficult to read,29-04-2019 04:08
561,1,7,False,Letter designer,2,recognition,2,sansforgetica,empreases,non-word,Sure seen,1.0,seen,empreases,1796.0,7.493317248862145,50,difficult to read,29-04-2019 04:08
562,1,7,False,Letter designer,2,recognition,3,sansforgetica,opportunity,word,Probably not seen,1.0,not seen,opinion,1952.0,7.5766097669730375,50,difficult to read,29-04-2019 04:08
563,1,7,False,Letter designer,2,recognition,4,sansforgetica,secretary,word,Probably not seen,1.0,not seen,secret,1319.0,7.1846291527173145,50,difficult to read,29-04-2019 04:08
564,1,7,False,Letter designer,2,recognition,5,sansforgetica,worls,non-word,Sure seen,0.0,not seen,worelete,2221.0,7.7057128238944275,50,difficult to read,29-04-2019 04:08
565,1,7,False,Letter designer,2,recognition,6,sansforgetica,besides,word,Sure seen,1.0,seen,besides,1035.0,6.942156705699469,50,difficult to read,29-04-2019 04:08
566,1,7,False,Letter designer,2,recognition,7,sansforgetica,cresser,non-word,Sure seen,0.0,not seen,crepards,1564.0,7.355001921105257,50,difficult to read,29-04-2019 04:08
567,1,7,False,Letter designer,2,recognition,8,sansforgetica,airalow,non-word,Sure seen,1.0,seen,airalow,1398.0,7.242797922793756,50,difficult to read,29-04-2019 04:08
568,1,7,False,Letter designer,2,recognition,9,sansforgetica,changing,word,Sure seen,1.0,seen,changing,1051.0,6.957497370876951,50,difficult to read,29-04-2019 04:08
569,1,7,False,Letter designer,2,recognition,10,sansforgetica,least,word,Probably not seen,0.0,seen,least,2574.0,7.853216388156072,50,difficult to read,29-04-2019 04:08
570,1,7,False,Letter designer,2,recognition,11,sansforgetica,scale,word,Probably not seen,1.0,not seen,saying,1763.0,7.47477218239787,50,difficult to read,29-04-2019 04:08
571,1,7,False,Letter designer,2,recognition,12,sansforgetica,disruptics,non-word,Probably not seen,1.0,not seen,disgrestors,2614.0,7.868636894184167,50,difficult to read,29-04-2019 04:08
572,1,7,False,Letter designer,2,recognition,13,sansforgetica,differsive,non-word,Probably not seen,0.0,seen,differsive,1831.0,7.5126175446745105,50,difficult to read,29-04-2019 04:08
573,1,7,False,Letter designer,2,recognition,14,sansforgetica,nobit,non-word,Sure seen,1.0,seen,nobit,1374.0,7.2254814727822945,50,difficult to read,29-04-2019 04:08
574,1,7,False,Letter designer,2,recognition,15,sansforgetica,becoming,word,Sure seen,0.0,not seen,becomes,1090.0,6.993932975223189,50,difficult to read,29-04-2019 04:08
575,1,7,False,Letter designer,2,recognition,16,sansforgetica,heavily,word,Sure seen,1.0,seen,heavily,925.0,6.829793737512425,50,difficult to read,29-04-2019 04:08
576,1,8,False,Non-designer,1,lexical,1,arial,safety,word,Sure word,1.0,,,2364.0,7.768110378525988,50,very easy to read,28-04-2019 16:32
577,1,8,False,Non-designer,1,lexical,2,arial,therinder,non-word,Probably non-word,1.0,,,3250.0,8.086410275323782,50,very easy to read,28-04-2019 16:32
578,1,8,False,Non-designer,1,lexical,3,arial,spent,word,Sure word,1.0,,,1935.0,7.5678626054638825,50,very easy to read,28-04-2019 16:32
579,1,8,False,Non-designer,1,lexical,4,arial,market,word,Sure word,1.0,,,1894.0,7.546446273746024,50,very easy to read,28-04-2019 16:32
580,1,8,False,Non-designer,1,lexical,5,arial,preeding,non-word,Probably non-word,1.0,,,3188.0,8.067149039910106,50,very easy to read,28-04-2019 16:32
581,1,8,False,Non-designer,1,lexical,6,arial,growing,word,Sure word,1.0,,,1648.0,7.4073177104694174,50,very easy to read,28-04-2019 16:32
582,1,8,False,Non-designer,1,lexical,7,arial,accepted,word,Sure word,1.0,,,2120.0,7.659171367666058,50,very easy to read,28-04-2019 16:32
583,1,8,False,Non-designer,1,lexical,8,arial,prices,word,Sure word,1.0,,,3511.0,8.163656176168432,50,very easy to read,28-04-2019 16:32
584,1,8,False,Non-designer,1,lexical,9,arial,support,word,Sure word,1.0,,,2005.0,7.60339933974067,50,very easy to read,28-04-2019 16:32
585,1,8,False,Non-designer,1,lexical,10,arial,message,word,Sure word,1.0,,,3095.0,8.037543185118697,50,very easy to read,28-04-2019 16:32
586,1,8,False,Non-designer,1,lexical,11,arial,perfory,non-word,Probably non-word,1.0,,,2323.0,7.750614732770409,50,very easy to read,28-04-2019 16:32
587,1,8,False,Non-designer,1,lexical,12,arial,memand,non-word,Probably non-word,1.0,,,1816.0,7.504391559161238,50,very easy to read,28-04-2019 16:32
588,1,8,False,Non-designer,1,lexical,13,arial,happered,non-word,Probably non-word,1.0,,,1897.0,7.5480289699350145,50,very easy to read,28-04-2019 16:32
589,1,8,False,Non-designer,1,lexical,14,arial,collainess,non-word,Probably non-word,1.0,,,1700.0,7.438383530044307,50,very easy to read,28-04-2019 16:32
590,1,8,False,Non-designer,1,lexical,15,arial,fissity,non-word,Probably non-word,1.0,,,2870.0,7.962067308753666,50,very easy to read,28-04-2019 16:32
591,1,8,False,Non-designer,1,lexical,16,arial,manner,word,Sure word,1.0,,,1180.0,7.07326971745971,50,very easy to read,28-04-2019 16:32
592,1,8,False,Non-designer,1,lexical,17,arial,infortition,non-word,Probably non-word,1.0,,,4232.0,8.350429973538136,50,very easy to read,28-04-2019 16:32
593,1,8,False,Non-designer,1,lexical,18,arial,indifferely,non-word,Probably non-word,1.0,,,3837.0,8.252446090246952,50,very easy to read,28-04-2019 16:32
594,1,8,False,Non-designer,1,lexical,19,arial,matragants,non-word,Probably non-word,1.0,,,2380.0,7.77485576666552,50,very easy to read,28-04-2019 16:32
595,1,8,False,Non-designer,1,lexical,20,arial,scale,word,Sure word,1.0,,,1136.0,7.035268599281097,50,very easy to read,28-04-2019 16:32
596,1,8,False,Non-designer,1,recognition,1,arial,comehol,non-word,Sure not seen,1.0,not seen,collainess,5858.0,8.675563527387679,50,very easy to read,28-04-2019 16:32
597,1,8,False,Non-designer,1,recognition,2,arial,thiles,non-word,Sure not seen,1.0,not seen,therinder,1287.0,7.160069207596127,50,very easy to read,28-04-2019 16:32
598,1,8,False,Non-designer,1,recognition,3,arial,happered,non-word,Sure seen,1.0,seen,happered,2483.0,7.817222785508166,50,very easy to read,28-04-2019 16:32
599,1,8,False,Non-designer,1,recognition,4,arial,scale,word,Sure seen,1.0,seen,scale,1366.0,7.2196420401307355,50,very easy to read,28-04-2019 16:32
600,1,8,False,Non-designer,1,recognition,5,arial,prices,word,Sure seen,1.0,seen,prices,1368.0,7.221105098182496,50,very easy to read,28-04-2019 16:32
601,1,8,False,Non-designer,1,recognition,6,arial,market,word,Sure seen,1.0,seen,market,1687.0,7.430707082545968,50,very easy to read,28-04-2019 16:32
602,1,8,False,Non-designer,1,recognition,7,arial,grown,word,Probably not seen,1.0,not seen,growing,2995.0,8.00469951054955,50,very easy to read,28-04-2019 16:32
603,1,8,False,Non-designer,1,recognition,8,arial,individered,non-word,Sure seen,0.0,not seen,indifferely,2982.0,8.000349495324684,50,very easy to read,28-04-2019 16:32
604,1,8,False,Non-designer,1,recognition,9,arial,management,word,Sure seen,0.0,not seen,manner,5819.0,8.66888370465667,50,very easy to read,28-04-2019 16:32
605,1,8,False,Non-designer,1,recognition,10,arial,preeding,non-word,Sure seen,1.0,seen,preeding,1522.0,7.3277805384216315,50,very easy to read,28-04-2019 16:32
606,1,8,False,Non-designer,1,recognition,11,arial,matragants,non-word,Sure seen,1.0,seen,matragants,2459.0,7.807510042216193,50,very easy to read,28-04-2019 16:32
607,1,8,False,Non-designer,1,recognition,12,arial,safety,word,Sure seen,1.0,seen,safety,1688.0,7.431299675155903,50,very easy to read,28-04-2019 16:32
608,1,8,False,Non-designer,1,recognition,13,arial,fissity,non-word,Sure seen,1.0,seen,fissity,1312.0,7.179307969504034,50,very easy to read,28-04-2019 16:32
609,1,8,False,Non-designer,1,recognition,14,arial,accident,word,Probably not seen,1.0,not seen,accepted,1718.0,7.4489161025442,50,very easy to read,28-04-2019 16:32
610,1,8,False,Non-designer,1,recognition,15,arial,spirit,word,Probably not seen,1.0,not seen,spent,2607.0,7.865955413933502,50,very easy to read,28-04-2019 16:32
611,1,8,False,Non-designer,1,recognition,16,arial,insital,non-word,Probably not seen,1.0,not seen,infortition,2876.0,7.964155718840937,50,very easy to read,28-04-2019 16:32
612,1,8,False,Non-designer,2,lexical,1,sansforgetica,upties,non-word,Probably non-word,1.0,,,7021.0,8.85666093701725,50,difficult to read,28-04-2019 16:32
613,1,8,False,Non-designer,2,lexical,2,sansforgetica,behaviour,word,Sure word,1.0,,,1753.0,7.469083884921234,50,difficult to read,28-04-2019 16:32
614,1,8,False,Non-designer,2,lexical,3,sansforgetica,proper,word,Sure word,1.0,,,1677.0,7.424761761823209,50,difficult to read,28-04-2019 16:32
615,1,8,False,Non-designer,2,lexical,4,sansforgetica,really,word,Sure word,1.0,,,1087.0,6.99117688712121,50,difficult to read,28-04-2019 16:32
616,1,8,False,Non-designer,2,lexical,5,sansforgetica,advanced,word,Sure word,1.0,,,1383.0,7.232010331664759,50,difficult to read,28-04-2019 16:32
617,1,8,False,Non-designer,2,lexical,6,sansforgetica,gereed,non-word,Probably non-word,1.0,,,3250.0,8.086410275323782,50,difficult to read,28-04-2019 16:32
618,1,8,False,Non-designer,2,lexical,7,sansforgetica,cannot,word,Sure word,1.0,,,1183.0,7.075808863978387,50,difficult to read,28-04-2019 16:32
619,1,8,False,Non-designer,2,lexical,8,sansforgetica,brime,non-word,Probably non-word,1.0,,,1467.0,7.2909747781429814,50,difficult to read,28-04-2019 16:32
620,1,8,False,Non-designer,2,lexical,9,sansforgetica,whole,word,Sure word,1.0,,,1130.0,7.029972911706386,50,difficult to read,28-04-2019 16:32
621,1,8,False,Non-designer,2,lexical,10,sansforgetica,occational,non-word,Probably non-word,1.0,,,2320.0,7.749322464660356,50,difficult to read,28-04-2019 16:32
622,1,8,False,Non-designer,2,lexical,11,sansforgetica,gathdrent,non-word,Sure non-word,1.0,,,1882.0,7.540090320145325,50,difficult to read,28-04-2019 16:32
623,1,8,False,Non-designer,2,lexical,12,sansforgetica,becieve,non-word,Sure non-word,1.0,,,493.0,6.20050917404269,50,difficult to read,28-04-2019 16:32
624,1,8,False,Non-designer,2,lexical,13,sansforgetica,prowney,non-word,Sure non-word,1.0,,,2442.0,7.80057265467065,50,difficult to read,28-04-2019 16:32
625,1,8,False,Non-designer,2,lexical,14,sansforgetica,arrinst,non-word,Sure non-word,1.0,,,1421.0,7.259116128097101,50,difficult to read,28-04-2019 16:32
626,1,8,False,Non-designer,2,lexical,15,sansforgetica,attention,word,Sure word,1.0,,,1214.0,7.101675971619444,50,difficult to read,28-04-2019 16:32
627,1,8,False,Non-designer,2,lexical,16,sansforgetica,fiels,non-word,Sure non-word,1.0,,,1635.0,7.399398083331354,50,difficult to read,28-04-2019 16:32
628,1,8,False,Non-designer,2,lexical,17,sansforgetica,extremely,word,Sure word,1.0,,,1564.0,7.355001921105257,50,difficult to read,28-04-2019 16:32
629,1,8,False,Non-designer,2,lexical,18,sansforgetica,western,word,Sure word,1.0,,,1431.0,7.266128779556451,50,difficult to read,28-04-2019 16:32
630,1,8,False,Non-designer,2,lexical,19,sansforgetica,atter,non-word,Sure non-word,1.0,,,1909.0,7.554334823725748,50,difficult to read,28-04-2019 16:32
631,1,8,False,Non-designer,2,lexical,20,sansforgetica,chosen,word,Sure word,1.0,,,1175.0,7.069023426578259,50,difficult to read,28-04-2019 16:32
632,1,8,False,Non-designer,2,recognition,1,sansforgetica,attitude,word,Sure seen,0.0,not seen,attention,6068.0,8.710784340468424,50,difficult to read,28-04-2019 16:32
633,1,8,False,Non-designer,2,recognition,2,sansforgetica,utilograble,non-word,Sure not seen,1.0,not seen,upties,1881.0,7.53955882930103,50,difficult to read,28-04-2019 16:32
634,1,8,False,Non-designer,2,recognition,3,sansforgetica,prowney,non-word,Sure seen,1.0,seen,prowney,2598.0,7.862497197230545,50,difficult to read,28-04-2019 16:32
635,1,8,False,Non-designer,2,recognition,4,sansforgetica,atter,non-word,Sure seen,1.0,seen,atter,1354.0,7.21081845347222,50,difficult to read,28-04-2019 16:32
636,1,8,False,Non-designer,2,recognition,5,sansforgetica,chosen,word,Sure seen,1.0,seen,chosen,1223.0,7.109062135687172,50,difficult to read,28-04-2019 16:32
637,1,8,False,Non-designer,2,recognition,6,sansforgetica,whose,word,Sure not seen,1.0,not seen,whole,1437.0,7.270312886079025,50,difficult to read,28-04-2019 16:32
638,1,8,False,Non-designer,2,recognition,7,sansforgetica,gighting,non-word,Sure not seen,1.0,not seen,gereed,3688.0,8.212839584676484,50,difficult to read,28-04-2019 16:32
639,1,8,False,Non-designer,2,recognition,8,sansforgetica,arror,non-word,Probably not seen,1.0,not seen,arrinst,2943.0,7.987184748233473,50,difficult to read,28-04-2019 16:32
640,1,8,False,Non-designer,2,recognition,9,sansforgetica,capable,word,Sure seen,0.0,not seen,cannot,1324.0,7.188412736496954,50,difficult to read,28-04-2019 16:32
641,1,8,False,Non-designer,2,recognition,10,sansforgetica,proper,word,Sure seen,1.0,seen,proper,1285.0,7.158513997329321,50,difficult to read,28-04-2019 16:32
642,1,8,False,Non-designer,2,recognition,11,sansforgetica,really,word,Sure seen,1.0,seen,really,1148.0,7.045776576879511,50,difficult to read,28-04-2019 16:32
643,1,8,False,Non-designer,2,recognition,12,sansforgetica,extremely,word,Sure seen,1.0,seen,extremely,1065.0,6.970730078143525,50,difficult to read,28-04-2019 16:32
644,1,8,False,Non-designer,2,recognition,13,sansforgetica,behind,word,Probably not seen,1.0,not seen,behaviour,2986.0,8.001689978099135,50,difficult to read,28-04-2019 16:32
645,1,8,False,Non-designer,2,recognition,14,sansforgetica,gatimasher,non-word,Probably not seen,1.0,not seen,gathdrent,1519.0,7.325807502595773,50,difficult to read,28-04-2019 16:32
646,1,8,False,Non-designer,2,recognition,15,sansforgetica,becieve,non-word,Probably not seen,0.0,seen,becieve,2412.0,7.788211557847076,50,difficult to read,28-04-2019 16:32
