,StudyID,ParticipantID,Fluent,Training,TestID,Type,TrialID,Font,Sample,Category,Response,Correct,Seen,Foil,RT,RTnorm,JoM,JoL,Date
0,1,0,True,Letter designer,1,lexical,1,arial,necressor,non-word,Probably non-word,1.0,,,5461.0,8.605387202152151,34,very easy to read,05-04-2019 12:16
1,1,0,True,Letter designer,1,lexical,2,arial,thouratute,non-word,Sure non-word,1.0,,,2706.0,7.903226808730732,34,very easy to read,05-04-2019 12:16
2,1,0,True,Letter designer,1,lexical,3,arial,refectuning,non-word,Sure non-word,1.0,,,1987.0,7.594381242551818,34,very easy to read,05-04-2019 12:16
3,1,0,True,Letter designer,1,lexical,4,arial,separate,word,Sure word,1.0,,,1368.0,7.221105098182496,34,very easy to read,05-04-2019 12:16
4,1,0,True,Letter designer,1,lexical,5,arial,studies,word,Sure word,1.0,,,1119.0,7.020190708311925,34,very easy to read,05-04-2019 12:16
5,1,0,True,Letter designer,1,lexical,6,arial,presence,word,Sure word,1.0,,,771.0,6.647688373563329,34,very easy to read,05-04-2019 12:16
6,1,0,True,Letter designer,1,lexical,7,arial,faces,word,Sure word,1.0,,,756.0,6.628041376179532,34,very easy to read,05-04-2019 12:16
7,1,0,True,Letter designer,1,lexical,8,arial,stars,word,Sure word,1.0,,,766.0,6.641182169740591,34,very easy to read,05-04-2019 12:16
8,1,0,True,Letter designer,1,lexical,9,arial,experaties,non-word,Sure non-word,1.0,,,2153.0,7.674617497364363,34,very easy to read,05-04-2019 12:16
9,1,0,True,Letter designer,1,lexical,10,arial,repardance,non-word,Sure non-word,1.0,,,1414.0,7.2541778464565185,34,very easy to read,05-04-2019 12:16
10,1,0,True,Letter designer,1,lexical,11,arial,gazark,non-word,Sure non-word,1.0,,,966.0,6.873163834212518,34,very easy to read,05-04-2019 12:16
11,1,0,True,Letter designer,1,lexical,12,arial,empreases,non-word,Sure non-word,1.0,,,1214.0,7.101675971619444,34,very easy to read,05-04-2019 12:16
12,1,0,True,Letter designer,1,lexical,13,arial,refengement,non-word,Probably word,0.0,,,3081.0,8.033009498596668,34,very easy to read,05-04-2019 12:16
13,1,0,True,Letter designer,1,lexical,14,arial,replied,word,Sure word,1.0,,,1281.0,7.155396301896733,34,very easy to read,05-04-2019 12:16
14,1,0,True,Letter designer,1,lexical,15,arial,lisertant,non-word,Sure non-word,1.0,,,1734.0,7.458186157340487,34,very easy to read,05-04-2019 12:16
15,1,0,True,Letter designer,1,lexical,16,arial,described,word,Sure word,1.0,,,1223.0,7.109062135687172,34,very easy to read,05-04-2019 12:16
16,1,0,True,Letter designer,1,lexical,17,arial,office,word,Sure word,1.0,,,1010.0,6.917705609835306,34,very easy to read,05-04-2019 12:16
17,1,0,True,Letter designer,1,lexical,18,arial,opposite,word,Sure word,1.0,,,939.0,6.844815479208263,34,very easy to read,05-04-2019 12:16
18,1,0,True,Letter designer,1,lexical,19,arial,descussed,non-word,Probably non-word,1.0,,,3205.0,8.072467369354769,34,very easy to read,05-04-2019 12:16
19,1,0,True,Letter designer,1,lexical,20,arial,support,word,Sure word,1.0,,,1095.0,6.9985096422506015,34,very easy to read,05-04-2019 12:16
20,1,0,True,Letter designer,1,recognition,1,arial,faces,word,Sure seen,1.0,seen,faces,1952.0,7.576609766973037,34,very easy to read,05-04-2019 12:16
21,1,0,True,Letter designer,1,recognition,2,arial,described,word,Sure seen,1.0,seen,described,1445.0,7.275864600546532,34,very easy to read,05-04-2019 12:16
22,1,0,True,Letter designer,1,recognition,3,arial,opposition,word,Sure not seen,1.0,not seen,opposite,2421.0,7.791935956938058,34,very easy to read,05-04-2019 12:16
23,1,0,True,Letter designer,1,recognition,4,arial,separate,word,Sure seen,1.0,seen,separate,1549.0,7.345364840416867,34,very easy to read,05-04-2019 12:16
24,1,0,True,Letter designer,1,recognition,5,arial,repardance,non-word,Probably seen,1.0,seen,repardance,2073.0,7.6367521124357785,34,very easy to read,05-04-2019 12:16
25,1,0,True,Letter designer,1,recognition,6,arial,experaties,non-word,Probably not seen,0.0,seen,experaties,4957.0,8.508555998020574,34,very easy to read,05-04-2019 12:16
26,1,0,True,Letter designer,1,recognition,7,arial,officers,word,Sure not seen,1.0,not seen,office,2125.0,7.661527081358518,34,very easy to read,05-04-2019 12:16
27,1,0,True,Letter designer,1,recognition,8,arial,stuff,word,Sure not seen,1.0,not seen,studies,1151.0,7.048386408721884,34,very easy to read,05-04-2019 12:16
28,1,0,True,Letter designer,1,recognition,9,arial,desing,non-word,Sure not seen,1.0,not seen,descussed,989.0,6.8966943316227125,34,very easy to read,05-04-2019 12:16
29,1,0,True,Letter designer,1,recognition,10,arial,presence,word,Sure seen,1.0,seen,presence,1480.0,7.299797366758161,34,very easy to read,05-04-2019 12:16
30,1,0,True,Letter designer,1,recognition,11,arial,supposed,word,Probably seen,0.0,not seen,support,1777.0,7.482681828154651,34,very easy to read,05-04-2019 12:16
31,1,0,True,Letter designer,1,recognition,12,arial,empreases,non-word,Sure seen,1.0,seen,empreases,1555.0,7.3492308246133335,34,very easy to read,05-04-2019 12:16
32,1,0,True,Letter designer,1,recognition,13,arial,regangle,non-word,Sure not seen,1.0,not seen,refengement,1358.0,7.213768308118643,34,very easy to read,05-04-2019 12:16
33,1,0,True,Letter designer,1,recognition,14,arial,neeld,non-word,Sure not seen,1.0,not seen,necressor,1061.0,6.966967138613982,34,very easy to read,05-04-2019 12:16
34,1,0,True,Letter designer,1,recognition,15,arial,rectined,non-word,Sure not seen,1.0,not seen,refectuning,1665.0,7.4175804024145435,34,very easy to read,05-04-2019 12:16
35,1,0,True,Letter designer,1,recognition,16,arial,gazark,non-word,Sure seen,1.0,seen,gazark,1623.0,7.392031567514591,34,very easy to read,05-04-2019 12:16
36,1,0,True,Letter designer,2,lexical,1,sansforgetica,tealissed,non-word,Probably non-word,1.0,,,6800.0,8.824677891164196,35,difficult to read,05-04-2019 12:16
37,1,0,True,Letter designer,2,lexical,2,sansforgetica,partly,word,Sure word,1.0,,,1685.0,7.429520842786462,35,difficult to read,05-04-2019 12:16
38,1,0,True,Letter designer,2,lexical,3,sansforgetica,pulled,word,Sure word,1.0,,,4470.0,8.405143687607614,35,difficult to read,05-04-2019 12:16
39,1,0,True,Letter designer,2,lexical,4,sansforgetica,gream,non-word,Probably word,0.0,,,4570.0,8.42726848388825,35,difficult to read,05-04-2019 12:16
40,1,0,True,Letter designer,2,lexical,5,sansforgetica,goverpream,non-word,Sure non-word,1.0,,,3137.0,8.051022208190679,35,difficult to read,05-04-2019 12:16
41,1,0,True,Letter designer,2,lexical,6,sansforgetica,maintenting,non-word,Probably non-word,1.0,,,2715.0,7.906547232368037,35,difficult to read,05-04-2019 12:16
42,1,0,True,Letter designer,2,lexical,7,sansforgetica,capacity,word,Sure word,1.0,,,1282.0,7.156176637480615,35,difficult to read,05-04-2019 12:16
43,1,0,True,Letter designer,2,lexical,8,sansforgetica,third,word,Sure word,1.0,,,1033.0,6.940222469119639,35,difficult to read,05-04-2019 12:16
44,1,0,True,Letter designer,2,lexical,9,sansforgetica,drove,word,Sure word,1.0,,,941.0,6.846943139585379,35,difficult to read,05-04-2019 12:16
45,1,0,True,Letter designer,2,lexical,10,sansforgetica,government,word,Sure word,1.0,,,1057.0,6.963189985870238,35,difficult to read,05-04-2019 12:16
46,1,0,True,Letter designer,2,lexical,11,sansforgetica,serry,non-word,Sure word,0.0,,,845.0,6.739336627357174,35,difficult to read,05-04-2019 12:16
47,1,0,True,Letter designer,2,lexical,12,sansforgetica,trandforing,non-word,Sure non-word,1.0,,,2071.0,7.6357868613955855,35,difficult to read,05-04-2019 12:16
48,1,0,True,Letter designer,2,lexical,13,sansforgetica,rincies,non-word,Sure non-word,1.0,,,1039.0,6.946013991099227,35,difficult to read,05-04-2019 12:16
49,1,0,True,Letter designer,2,lexical,14,sansforgetica,trust,word,Sure word,1.0,,,1289.0,7.161622002939187,35,difficult to read,05-04-2019 12:16
50,1,0,True,Letter designer,2,lexical,15,sansforgetica,financial,word,Sure word,1.0,,,1053.0,6.959398512133975,35,difficult to read,05-04-2019 12:16
51,1,0,True,Letter designer,2,lexical,16,sansforgetica,stories,word,Sure word,1.0,,,890.0,6.7912214627261855,35,difficult to read,05-04-2019 12:16
52,1,0,True,Letter designer,2,lexical,17,sansforgetica,fissely,non-word,Sure non-word,1.0,,,1152.0,7.049254841255838,35,difficult to read,05-04-2019 12:16
53,1,0,True,Letter designer,2,lexical,18,sansforgetica,simplete,non-word,Probably word,0.0,,,1811.0,7.501634457883411,35,difficult to read,05-04-2019 12:16
54,1,0,True,Letter designer,2,lexical,19,sansforgetica,nontrantion,non-word,Probably non-word,1.0,,,3384.0,8.126813720726114,35,difficult to read,05-04-2019 12:16
55,1,0,True,Letter designer,2,lexical,20,sansforgetica,supply,word,Sure word,1.0,,,1225.0,7.110696122978827,35,difficult to read,05-04-2019 12:16
56,1,0,True,Letter designer,2,recognition,1,sansforgetica,teliquely,non-word,Sure not seen,1.0,not seen,tealissed,2300.0,7.7406644019172415,35,difficult to read,05-04-2019 12:16
57,1,0,True,Letter designer,2,recognition,2,sansforgetica,trust,word,Sure seen,1.0,seen,trust,1152.0,7.049254841255838,35,difficult to read,05-04-2019 12:16
58,1,0,True,Letter designer,2,recognition,3,sansforgetica,maintenting,non-word,Sure seen,1.0,seen,maintenting,2039.0,7.620214770574456,35,difficult to read,05-04-2019 12:16
59,1,0,True,Letter designer,2,recognition,4,sansforgetica,goverpream,non-word,Sure seen,1.0,seen,goverpream,2957.0,7.991930519852477,35,difficult to read,05-04-2019 12:16
60,1,0,True,Letter designer,2,recognition,5,sansforgetica,simplete,non-word,Sure seen,1.0,seen,simplete,1428.0,7.2640301428995295,35,difficult to read,05-04-2019 12:16
61,1,0,True,Letter designer,2,recognition,6,sansforgetica,third,word,Sure seen,1.0,seen,third,940.0,6.84587987526405,35,difficult to read,05-04-2019 12:16
62,1,0,True,Letter designer,2,recognition,7,sansforgetica,gradually,word,Probably not seen,1.0,not seen,government,1839.0,7.516977224604322,35,difficult to read,05-04-2019 12:16
63,1,0,True,Letter designer,2,recognition,8,sansforgetica,greathant,non-word,Sure not seen,1.0,not seen,gream,1386.0,7.234177179749849,35,difficult to read,05-04-2019 12:16
64,1,0,True,Letter designer,2,recognition,9,sansforgetica,finding,word,Probably seen,0.0,not seen,financial,2285.0,7.734121303328305,35,difficult to read,05-04-2019 12:16
65,1,0,True,Letter designer,2,recognition,10,sansforgetica,riner,non-word,Sure not seen,1.0,not seen,rincies,1274.0,7.149916836132108,35,difficult to read,05-04-2019 12:16
66,1,0,True,Letter designer,2,recognition,11,sansforgetica,purpose,word,Sure not seen,1.0,not seen,pulled,1465.0,7.289610521451168,35,difficult to read,05-04-2019 12:16
67,1,0,True,Letter designer,2,recognition,12,sansforgetica,stories,word,Sure seen,1.0,seen,stories,1118.0,7.0192966537150445,35,difficult to read,05-04-2019 12:16
68,1,0,True,Letter designer,2,recognition,13,sansforgetica,supply,word,Sure seen,1.0,seen,supply,826.0,6.716594773520978,35,difficult to read,05-04-2019 12:16
69,1,0,True,Letter designer,2,recognition,14,sansforgetica,parts,word,Sure seen,0.0,not seen,partly,1036.0,6.943122422819427,35,difficult to read,05-04-2019 12:16
70,1,0,True,Letter designer,2,recognition,15,sansforgetica,fissity,non-word,Sure not seen,1.0,not seen,fissely,1238.0,7.121252453244543,35,difficult to read,05-04-2019 12:16
71,1,0,True,Letter designer,2,recognition,16,sansforgetica,nontrantion,non-word,Sure seen,1.0,seen,nontrantion,1813.0,7.502738210754851,35,difficult to read,05-04-2019 12:16
72,1,1,True,Letter designer,1,lexical,1,sansforgetica,objectial,non-word,Probably word,0.0,,,7498.0,8.922391597295858,25,difficult to read,05-04-2019 11:41
73,1,1,True,Letter designer,1,lexical,2,sansforgetica,minisity,non-word,Probably non-word,1.0,,,6528.0,8.783855896643942,25,difficult to read,05-04-2019 11:41
74,1,1,True,Letter designer,1,lexical,3,sansforgetica,wetween,non-word,Sure non-word,1.0,,,2967.0,7.995306620290822,25,difficult to read,05-04-2019 11:41
75,1,1,True,Letter designer,1,lexical,4,sansforgetica,standing,word,Sure word,1.0,,,2048.0,7.6246189861593985,25,difficult to read,05-04-2019 11:41
76,1,1,True,Letter designer,1,lexical,5,sansforgetica,getting,word,Sure word,1.0,,,2848.0,7.954372272531867,25,difficult to read,05-04-2019 11:41
77,1,1,True,Letter designer,1,lexical,6,sansforgetica,disgrestors,non-word,Probably word,0.0,,,3768.0,8.234299635696253,25,difficult to read,05-04-2019 11:41
78,1,1,True,Letter designer,1,lexical,7,sansforgetica,having,word,Sure word,1.0,,,1416.0,7.255591274253665,25,difficult to read,05-04-2019 11:41
79,1,1,True,Letter designer,1,lexical,8,sansforgetica,settled,word,Sure word,1.0,,,1632.0,7.397561535524052,25,difficult to read,05-04-2019 11:41
80,1,1,True,Letter designer,1,lexical,9,sansforgetica,courch,non-word,Sure non-word,1.0,,,5185.0,8.553525120663627,25,difficult to read,05-04-2019 11:41
81,1,1,True,Letter designer,1,lexical,10,sansforgetica,riner,non-word,Probably non-word,1.0,,,7350.0,8.902455592206882,25,difficult to read,05-04-2019 11:41
82,1,1,True,Letter designer,1,lexical,11,sansforgetica,seriously,word,Sure word,1.0,,,1840.0,7.517520850603031,25,difficult to read,05-04-2019 11:41
83,1,1,True,Letter designer,1,lexical,12,sansforgetica,fashing,non-word,Probably non-word,1.0,,,6625.0,8.798605650854421,25,difficult to read,05-04-2019 11:41
84,1,1,True,Letter designer,1,lexical,13,sansforgetica,leaves,word,Sure word,1.0,,,3679.0,8.210396255104772,25,difficult to read,05-04-2019 11:41
85,1,1,True,Letter designer,1,lexical,14,sansforgetica,reasonatic,non-word,Probably non-word,1.0,,,3865.0,8.259716961021523,25,difficult to read,05-04-2019 11:41
86,1,1,True,Letter designer,1,lexical,15,sansforgetica,turning,word,Sure word,1.0,,,1967.0,7.584264818389058,25,difficult to read,05-04-2019 11:41
87,1,1,True,Letter designer,1,lexical,16,sansforgetica,pulled,word,Sure word,1.0,,,1393.0,7.2392149737798075,25,difficult to read,05-04-2019 11:41
88,1,1,True,Letter designer,1,lexical,17,sansforgetica,conventment,non-word,Probably word,0.0,,,2678.0,7.892825526251117,25,difficult to read,05-04-2019 11:41
89,1,1,True,Letter designer,1,lexical,18,sansforgetica,faterb,non-word,Sure non-word,1.0,,,4450.0,8.400659375160286,25,difficult to read,05-04-2019 11:41
90,1,1,True,Letter designer,1,lexical,19,sansforgetica,recognize,word,Sure word,1.0,,,2151.0,7.673688129267731,25,difficult to read,05-04-2019 11:41
91,1,1,True,Letter designer,1,lexical,20,sansforgetica,general,word,Sure word,1.0,,,1240.0,7.122866658599082,25,difficult to read,05-04-2019 11:41
92,1,1,True,Letter designer,1,recognition,1,sansforgetica,leaves,word,Sure seen,1.0,seen,leaves,3640.0,8.199738960630786,25,difficult to read,05-04-2019 11:41
93,1,1,True,Letter designer,1,recognition,2,sansforgetica,servants,word,Sure not seen,1.0,not seen,seriously,4689.0,8.452974619089586,25,difficult to read,05-04-2019 11:41
94,1,1,True,Letter designer,1,recognition,3,sansforgetica,minned,non-word,Sure not seen,1.0,not seen,minisity,1695.0,7.4354380198145495,25,difficult to read,05-04-2019 11:41
95,1,1,True,Letter designer,1,recognition,4,sansforgetica,courch,non-word,Sure seen,1.0,seen,courch,1911.0,7.555381944240272,25,difficult to read,05-04-2019 11:41
96,1,1,True,Letter designer,1,recognition,5,sansforgetica,whaiming,non-word,Sure not seen,1.0,not seen,wetween,1649.0,7.407924322559599,25,difficult to read,05-04-2019 11:41
97,1,1,True,Letter designer,1,recognition,6,sansforgetica,farkeyary,non-word,Sure not seen,1.0,not seen,fashing,1887.0,7.54274354536855,25,difficult to read,05-04-2019 11:41
98,1,1,True,Letter designer,1,recognition,7,sansforgetica,faterb,non-word,Sure seen,1.0,seen,faterb,2305.0,7.742835955430748,25,difficult to read,05-04-2019 11:41
99,1,1,True,Letter designer,1,recognition,8,sansforgetica,having,word,Sure seen,1.0,seen,having,1302.0,7.171656822768514,25,difficult to read,05-04-2019 11:41
100,1,1,True,Letter designer,1,recognition,9,sansforgetica,turning,word,Sure seen,1.0,seen,turning,2648.0,7.881559917056898,25,difficult to read,05-04-2019 11:41
101,1,1,True,Letter designer,1,recognition,10,sansforgetica,record,word,Probably not seen,1.0,not seen,recognize,6088.0,8.714074899541522,25,difficult to read,05-04-2019 11:41
102,1,1,True,Letter designer,1,recognition,11,sansforgetica,reasonatic,non-word,Probably seen,1.0,seen,reasonatic,6009.0,8.701013624333928,25,difficult to read,05-04-2019 11:41
103,1,1,True,Letter designer,1,recognition,12,sansforgetica,purpose,word,Probably not seen,1.0,not seen,pulled,2487.0,7.818832443803403,25,difficult to read,05-04-2019 11:41
104,1,1,True,Letter designer,1,recognition,13,sansforgetica,rivice,non-word,Probably not seen,1.0,not seen,riner,3833.0,8.251403065380556,25,difficult to read,05-04-2019 11:41
105,1,1,True,Letter designer,1,recognition,14,sansforgetica,general,word,Sure seen,1.0,seen,general,1367.0,7.220373836723948,25,difficult to read,05-04-2019 11:41
106,1,1,True,Letter designer,1,recognition,15,sansforgetica,disgrestors,non-word,Sure seen,1.0,seen,disgrestors,1688.0,7.431299675155902,25,difficult to read,05-04-2019 11:41
107,1,1,True,Letter designer,1,recognition,16,sansforgetica,seven,word,Sure not seen,1.0,not seen,settled,1689.0,7.4318919168078,25,difficult to read,05-04-2019 11:41
108,1,1,True,Letter designer,2,lexical,1,arial,essential,word,Sure word,1.0,,,2408.0,7.7865518064287125,50,easy to read,05-04-2019 11:41
109,1,1,True,Letter designer,2,lexical,2,arial,surtine,non-word,Sure non-word,1.0,,,4129.0,8.32579052588609,50,easy to read,05-04-2019 11:41
110,1,1,True,Letter designer,2,lexical,3,arial,nation,word,Sure word,1.0,,,1576.0,7.362645270417825,50,easy to read,05-04-2019 11:41
111,1,1,True,Letter designer,2,lexical,4,arial,finally,word,Sure word,1.0,,,1103.0,7.005789019253503,50,easy to read,05-04-2019 11:41
112,1,1,True,Letter designer,2,lexical,5,arial,appresses,non-word,Probably non-word,1.0,,,6506.0,8.780480107033299,50,easy to read,05-04-2019 11:41
113,1,1,True,Letter designer,2,lexical,6,arial,greselect,non-word,Sure non-word,1.0,,,5398.0,8.59378379357795,50,easy to read,05-04-2019 11:41
114,1,1,True,Letter designer,2,lexical,7,arial,whainest,non-word,Probably word,0.0,,,2760.0,7.9229859587111955,50,easy to read,05-04-2019 11:41
115,1,1,True,Letter designer,2,lexical,8,arial,mother,word,Sure word,1.0,,,1560.0,7.352441100243581,50,easy to read,05-04-2019 11:41
116,1,1,True,Letter designer,2,lexical,9,arial,natural,word,Sure word,1.0,,,2752.0,7.920083199053233,50,easy to read,05-04-2019 11:41
117,1,1,True,Letter designer,2,lexical,10,arial,thought,word,Sure word,1.0,,,1088.0,6.992096427415887,50,easy to read,05-04-2019 11:41
118,1,1,True,Letter designer,2,lexical,11,arial,lonour,non-word,Sure non-word,1.0,,,5751.0,8.657129031713755,50,easy to read,05-04-2019 11:41
119,1,1,True,Letter designer,2,lexical,12,arial,feels,word,Sure word,1.0,,,1816.0,7.504391559161237,50,easy to read,05-04-2019 11:41
120,1,1,True,Letter designer,2,lexical,13,arial,sligince,non-word,Sure non-word,1.0,,,1400.0,7.244227515603349,50,easy to read,05-04-2019 11:41
121,1,1,True,Letter designer,2,lexical,14,arial,trouble,word,Sure word,1.0,,,1264.0,7.142036574706802,50,easy to read,05-04-2019 11:41
122,1,1,True,Letter designer,2,lexical,15,arial,ideas,word,Sure word,1.0,,,1113.0,7.014814351275545,50,easy to read,05-04-2019 11:41
123,1,1,True,Letter designer,2,lexical,16,arial,londow,non-word,Probably word,0.0,,,5484.0,8.609590040682205,50,easy to read,05-04-2019 11:41
124,1,1,True,Letter designer,2,lexical,17,arial,backling,non-word,Probably word,0.0,,,1988.0,7.594884387216519,50,easy to read,05-04-2019 11:41
125,1,1,True,Letter designer,2,lexical,18,arial,manner,word,Sure word,1.0,,,1303.0,7.172424577124845,50,easy to read,05-04-2019 11:41
126,1,1,True,Letter designer,2,lexical,19,arial,exprinuous,non-word,Probably word,0.0,,,2528.0,7.8351837552667485,50,easy to read,05-04-2019 11:41
127,1,1,True,Letter designer,2,lexical,20,arial,preance,non-word,Probably word,0.0,,,3192.0,8.068402958569699,50,easy to read,05-04-2019 11:41
128,1,1,True,Letter designer,2,recognition,1,arial,sligince,non-word,Probably not seen,0.0,seen,sligince,3558.0,8.17695386822578,50,easy to read,05-04-2019 11:41
129,1,1,True,Letter designer,2,recognition,2,arial,trust,word,Probably not seen,1.0,not seen,trouble,5679.0,8.644530439877432,50,easy to read,05-04-2019 11:41
130,1,1,True,Letter designer,2,recognition,3,arial,preance,non-word,Sure seen,1.0,seen,preance,1593.0,7.373374309910048,50,easy to read,05-04-2019 11:41
131,1,1,True,Letter designer,2,recognition,4,arial,financial,word,Sure not seen,1.0,not seen,finally,1601.0,7.378383712996714,50,easy to read,05-04-2019 11:41
132,1,1,True,Letter designer,2,recognition,5,arial,essential,word,Sure seen,1.0,seen,essential,1672.0,7.421775793644648,50,easy to read,05-04-2019 11:41
133,1,1,True,Letter designer,2,recognition,6,arial,ideas,word,Sure seen,1.0,seen,ideas,1015.0,6.922643891475888,50,easy to read,05-04-2019 11:41
134,1,1,True,Letter designer,2,recognition,7,arial,appressite,non-word,Sure seen,0.0,not seen,appresses,2176.0,7.685243607975832,50,easy to read,05-04-2019 11:41
135,1,1,True,Letter designer,2,recognition,8,arial,backling,non-word,Sure seen,1.0,seen,backling,1136.0,7.035268599281098,50,easy to read,05-04-2019 11:41
136,1,1,True,Letter designer,2,recognition,9,arial,lonour,non-word,Sure seen,1.0,seen,lonour,1112.0,7.013915474810528,50,easy to read,05-04-2019 11:41
137,1,1,True,Letter designer,2,recognition,10,arial,national,word,Sure seen,0.0,not seen,nation,1032.0,6.939253946041508,50,easy to read,05-04-2019 11:41
138,1,1,True,Letter designer,2,recognition,11,arial,thought,word,Sure seen,1.0,seen,thought,904.0,6.806829360392176,50,easy to read,05-04-2019 11:41
139,1,1,True,Letter designer,2,recognition,12,arial,mother,word,Sure seen,1.0,seen,mother,888.0,6.78897174299217,50,easy to read,05-04-2019 11:41
140,1,1,True,Letter designer,2,recognition,13,arial,extremics,non-word,Sure not seen,1.0,not seen,exprinuous,1656.0,7.412160334945206,50,easy to read,05-04-2019 11:41
141,1,1,True,Letter designer,2,recognition,14,arial,lonnot,non-word,Sure not seen,1.0,not seen,londow,1736.0,7.459338895220297,50,easy to read,05-04-2019 11:41
142,1,1,True,Letter designer,2,recognition,15,arial,griends,non-word,Sure not seen,1.0,not seen,greselect,1512.0,7.321188556739478,50,easy to read,05-04-2019 11:41
143,1,1,True,Letter designer,2,recognition,16,arial,market,word,Sure not seen,1.0,not seen,manner,3016.0,8.011686729127849,50,easy to read,05-04-2019 11:41
144,1,2,True,Non-designer,1,lexical,1,sansforgetica,responsible,word,Sure word,1.0,,,2104.0,7.651595573857602,35,difficult to read,05-04-2019 09:45
145,1,2,True,Non-designer,1,lexical,2,sansforgetica,centoment,non-word,Sure non-word,1.0,,,2204.0,7.698029170272805,35,difficult to read,05-04-2019 09:45
146,1,2,True,Non-designer,1,lexical,3,sansforgetica,basis,word,Sure word,1.0,,,1521.0,7.327123292259293,35,difficult to read,05-04-2019 09:45
147,1,2,True,Non-designer,1,lexical,4,sansforgetica,tealissed,non-word,Sure non-word,1.0,,,2136.0,7.666690200080086,35,difficult to read,05-04-2019 09:45
148,1,2,True,Non-designer,1,lexical,5,sansforgetica,rectined,non-word,Sure non-word,1.0,,,4285.0,8.36287583103188,35,difficult to read,05-04-2019 09:45
149,1,2,True,Non-designer,1,lexical,6,sansforgetica,unpligatic,non-word,Sure non-word,1.0,,,1880.0,7.539027055823995,35,difficult to read,05-04-2019 09:45
150,1,2,True,Non-designer,1,lexical,7,sansforgetica,attermingly,non-word,Sure non-word,1.0,,,1769.0,7.478169694159786,35,difficult to read,05-04-2019 09:45
151,1,2,True,Non-designer,1,lexical,8,sansforgetica,suggest,word,Sure word,1.0,,,1562.0,7.353722330399631,35,difficult to read,05-04-2019 09:45
152,1,2,True,Non-designer,1,lexical,9,sansforgetica,disruptics,non-word,Probably non-word,1.0,,,2575.0,7.853604813097838,35,difficult to read,05-04-2019 09:45
153,1,2,True,Non-designer,1,lexical,10,sansforgetica,energy,word,Sure word,1.0,,,1316.0,7.182352111885263,35,difficult to read,05-04-2019 09:45
154,1,2,True,Non-designer,1,lexical,11,sansforgetica,winnic,non-word,Sure non-word,1.0,,,2285.0,7.734121303328305,35,difficult to read,05-04-2019 09:45
155,1,2,True,Non-designer,1,lexical,12,sansforgetica,established,word,Sure word,1.0,,,1778.0,7.483244416073849,35,difficult to read,05-04-2019 09:45
156,1,2,True,Non-designer,1,lexical,13,sansforgetica,breath,word,Sure word,1.0,,,1200.0,7.090076835776093,35,difficult to read,05-04-2019 09:45
157,1,2,True,Non-designer,1,lexical,14,sansforgetica,clean,word,Sure word,1.0,,,1519.0,7.325807502595773,35,difficult to read,05-04-2019 09:45
158,1,2,True,Non-designer,1,lexical,15,sansforgetica,being,word,Sure word,1.0,,,1080.0,6.984716320118267,35,difficult to read,05-04-2019 09:45
159,1,2,True,Non-designer,1,lexical,16,sansforgetica,upties,non-word,Probably non-word,1.0,,,2677.0,7.892452043520353,35,difficult to read,05-04-2019 09:45
160,1,2,True,Non-designer,1,lexical,17,sansforgetica,stories,word,Sure word,1.0,,,1429.0,7.264730177929867,35,difficult to read,05-04-2019 09:45
161,1,2,True,Non-designer,1,lexical,18,sansforgetica,mealth,non-word,Sure non-word,1.0,,,2509.0,7.827639546366424,35,difficult to read,05-04-2019 09:45
162,1,2,True,Non-designer,1,lexical,19,sansforgetica,principle,word,Sure word,1.0,,,1699.0,7.4377951216719325,35,difficult to read,05-04-2019 09:45
163,1,2,True,Non-designer,1,lexical,20,sansforgetica,stradfules,non-word,Sure non-word,1.0,,,2553.0,7.845024417241484,35,difficult to read,05-04-2019 09:45
164,1,2,True,Non-designer,1,recognition,1,sansforgetica,principle,word,Sure seen,1.0,seen,principle,2349.0,7.761744984658913,35,difficult to read,05-04-2019 09:45
165,1,2,True,Non-designer,1,recognition,2,sansforgetica,straight,word,Sure not seen,1.0,not seen,stories,2925.0,7.981049759665956,35,difficult to read,05-04-2019 09:45
166,1,2,True,Non-designer,1,recognition,3,sansforgetica,winnot,non-word,Sure seen,0.0,not seen,winnic,3296.0,8.100464891029363,35,difficult to read,05-04-2019 09:45
167,1,2,True,Non-designer,1,recognition,4,sansforgetica,energy,word,Sure seen,1.0,seen,energy,1205.0,7.094234845924755,35,difficult to read,05-04-2019 09:45
168,1,2,True,Non-designer,1,recognition,5,sansforgetica,summer,word,Sure not seen,1.0,not seen,suggest,2115.0,7.656810091480378,35,difficult to read,05-04-2019 09:45
169,1,2,True,Non-designer,1,recognition,6,sansforgetica,attermingly,non-word,Sure seen,1.0,seen,attermingly,2035.0,7.618251097876695,35,difficult to read,05-04-2019 09:45
170,1,2,True,Non-designer,1,recognition,7,sansforgetica,being,word,Sure seen,1.0,seen,being,2498.0,7.823245690685522,35,difficult to read,05-04-2019 09:45
171,1,2,True,Non-designer,1,recognition,8,sansforgetica,dissehons,non-word,Sure not seen,1.0,not seen,disruptics,2553.0,7.845024417241484,35,difficult to read,05-04-2019 09:45
172,1,2,True,Non-designer,1,recognition,9,sansforgetica,battle,word,Sure not seen,1.0,not seen,basis,1642.0,7.403670290012371,35,difficult to read,05-04-2019 09:45
173,1,2,True,Non-designer,1,recognition,10,sansforgetica,tealissed,non-word,Sure seen,1.0,seen,tealissed,1926.0,7.563200592358072,35,difficult to read,05-04-2019 09:45
174,1,2,True,Non-designer,1,recognition,11,sansforgetica,upties,non-word,Sure seen,1.0,seen,upties,1371.0,7.223295679562313,35,difficult to read,05-04-2019 09:45
175,1,2,True,Non-designer,1,recognition,12,sansforgetica,bridge,word,Sure not seen,1.0,not seen,breath,3018.0,8.012349639327795,35,difficult to read,05-04-2019 09:45
176,1,2,True,Non-designer,1,recognition,13,sansforgetica,responsible,word,Probably not seen,0.0,seen,responsible,4046.0,8.305484017727691,35,difficult to read,05-04-2019 09:45
177,1,2,True,Non-designer,1,recognition,14,sansforgetica,mealth,non-word,Sure seen,1.0,seen,mealth,2172.0,7.683403681053826,35,difficult to read,05-04-2019 09:45
178,1,2,True,Non-designer,1,recognition,15,sansforgetica,refectuning,non-word,Probably not seen,1.0,not seen,rectined,4881.0,8.493105395887147,35,difficult to read,05-04-2019 09:45
179,1,2,True,Non-designer,1,recognition,16,sansforgetica,untin,non-word,Probably not seen,1.0,not seen,unpligatic,3106.0,8.041091003708633,35,difficult to read,05-04-2019 09:45
180,1,2,True,Non-designer,2,lexical,1,arial,species,word,Sure word,1.0,,,2118.0,7.658227526161353,41,easy to read,05-04-2019 09:45
181,1,2,True,Non-designer,2,lexical,2,arial,accumplate,non-word,Sure non-word,1.0,,,1630.0,7.396335293800808,41,easy to read,05-04-2019 09:45
182,1,2,True,Non-designer,2,lexical,3,arial,store,word,Sure word,1.0,,,1697.0,7.4366172652342275,41,easy to read,05-04-2019 09:45
183,1,2,True,Non-designer,2,lexical,4,arial,narrow,word,Sure word,1.0,,,969.0,6.876264611890766,41,easy to read,05-04-2019 09:45
184,1,2,True,Non-designer,2,lexical,5,arial,windom,non-word,Sure non-word,1.0,,,1938.0,7.569411792450713,41,easy to read,05-04-2019 09:45
185,1,2,True,Non-designer,2,lexical,6,arial,relitical,non-word,Sure non-word,1.0,,,1459.0,7.285506548522784,41,easy to read,05-04-2019 09:45
186,1,2,True,Non-designer,2,lexical,7,arial,better,word,Sure word,1.0,,,1327.0,7.190676034332207,41,easy to read,05-04-2019 09:45
187,1,2,True,Non-designer,2,lexical,8,arial,production,word,Sure word,1.0,,,1327.0,7.190676034332207,41,easy to read,05-04-2019 09:45
188,1,2,True,Non-designer,2,lexical,9,arial,worelete,non-word,Sure non-word,1.0,,,3084.0,8.033982734683219,41,easy to read,05-04-2019 09:45
189,1,2,True,Non-designer,2,lexical,10,arial,midonious,non-word,Sure non-word,1.0,,,1316.0,7.182352111885263,41,easy to read,05-04-2019 09:45
190,1,2,True,Non-designer,2,lexical,11,arial,considered,word,Sure word,1.0,,,1440.0,7.2723983925700475,41,easy to read,05-04-2019 09:45
191,1,2,True,Non-designer,2,lexical,12,arial,amerying,non-word,Sure non-word,1.0,,,2542.0,7.8407064517494,41,easy to read,05-04-2019 09:45
192,1,2,True,Non-designer,2,lexical,13,arial,lunch,word,Sure word,1.0,,,1360.0,7.215239978730098,41,easy to read,05-04-2019 09:45
193,1,2,True,Non-designer,2,lexical,14,arial,painting,word,Sure word,1.0,,,1047.0,6.953684210870537,41,easy to read,05-04-2019 09:45
194,1,2,True,Non-designer,2,lexical,15,arial,roaked,non-word,Sure non-word,1.0,,,1968.0,7.5847730776121995,41,easy to read,05-04-2019 09:45
195,1,2,True,Non-designer,2,lexical,16,arial,provide,word,Sure word,1.0,,,1194.0,7.085064293952548,41,easy to read,05-04-2019 09:45
196,1,2,True,Non-designer,2,lexical,17,arial,sometched,non-word,Sure non-word,1.0,,,1697.0,7.4366172652342275,41,easy to read,05-04-2019 09:45
197,1,2,True,Non-designer,2,lexical,18,arial,heard,word,Sure word,1.0,,,2014.0,7.607878073278508,41,easy to read,05-04-2019 09:45
198,1,2,True,Non-designer,2,lexical,19,arial,drojects,non-word,Sure non-word,1.0,,,2576.0,7.853993087224244,41,easy to read,05-04-2019 09:45
199,1,2,True,Non-designer,2,lexical,20,arial,temarrences,non-word,Sure non-word,1.0,,,1722.0,7.451241684987676,41,easy to read,05-04-2019 09:45
200,1,2,True,Non-designer,2,recognition,1,arial,store,word,Sure seen,1.0,seen,store,2587.0,7.858254182186029,41,easy to read,05-04-2019 09:45
201,1,2,True,Non-designer,2,recognition,2,arial,tempriation,non-word,Sure not seen,1.0,not seen,temarrences,1981.0,7.591357046698551,41,easy to read,05-04-2019 09:45
202,1,2,True,Non-designer,2,recognition,3,arial,drojects,non-word,Sure seen,1.0,seen,drojects,2136.0,7.666690200080086,41,easy to read,05-04-2019 09:45
203,1,2,True,Non-designer,2,recognition,4,arial,sometions,non-word,Sure not seen,1.0,not seen,sometched,1982.0,7.591861714889934,41,easy to read,05-04-2019 09:45
204,1,2,True,Non-designer,2,recognition,5,arial,amerying,non-word,Sure seen,1.0,seen,amerying,1552.0,7.3472997007431635,41,easy to read,05-04-2019 09:45
205,1,2,True,Non-designer,2,recognition,6,arial,between,word,Sure not seen,1.0,not seen,better,2969.0,7.995980474763759,41,easy to read,05-04-2019 09:45
206,1,2,True,Non-designer,2,recognition,7,arial,public,word,Sure not seen,1.0,not seen,provide,1912.0,7.555905093611346,41,easy to read,05-04-2019 09:45
207,1,2,True,Non-designer,2,recognition,8,arial,papers,word,Sure not seen,1.0,not seen,painting,1440.0,7.2723983925700475,41,easy to read,05-04-2019 09:45
208,1,2,True,Non-designer,2,recognition,9,arial,heard,word,Probably not seen,0.0,seen,heard,1507.0,7.317876198626496,41,easy to read,05-04-2019 09:45
209,1,2,True,Non-designer,2,recognition,10,arial,relitical,non-word,Sure seen,1.0,seen,relitical,1496.0,7.310550158534423,41,easy to read,05-04-2019 09:45
210,1,2,True,Non-designer,2,recognition,11,arial,milently,non-word,Probably seen,0.0,not seen,midonious,2251.0,7.719129840906732,41,easy to read,05-04-2019 09:45
211,1,2,True,Non-designer,2,recognition,12,arial,production,word,Sure seen,1.0,seen,production,1271.0,7.147559271189453,41,easy to read,05-04-2019 09:45
212,1,2,True,Non-designer,2,recognition,13,arial,worelete,non-word,Sure seen,1.0,seen,worelete,1586.0,7.368970402194793,41,easy to read,05-04-2019 09:45
213,1,2,True,Non-designer,2,recognition,14,arial,romoting,non-word,Sure not seen,1.0,not seen,roaked,1834.0,7.51425465281641,41,easy to read,05-04-2019 09:45
214,1,2,True,Non-designer,2,recognition,15,arial,narrow,word,Sure seen,1.0,seen,narrow,1215.0,7.102499355774648,41,easy to read,05-04-2019 09:45
215,1,2,True,Non-designer,2,recognition,16,arial,speech,word,Probably seen,0.0,not seen,species,3307.0,8.103796712981794,41,easy to read,05-04-2019 09:45
216,1,3,True,Graphic designer,1,lexical,1,sansforgetica,drink,word,Sure word,1.0,,,2574.0,7.8532163881560715,60,ok,05-04-2019 04:23
217,1,3,True,Graphic designer,1,lexical,2,sansforgetica,successful,word,Sure word,1.0,,,2827.0,7.946971357693591,60,ok,05-04-2019 04:23
218,1,3,True,Graphic designer,1,lexical,3,sansforgetica,antendship,non-word,Probably word,0.0,,,3039.0,8.019283792916793,60,ok,05-04-2019 04:23
219,1,3,True,Graphic designer,1,lexical,4,sansforgetica,villsite,non-word,Probably non-word,1.0,,,3515.0,8.164794804244766,60,ok,05-04-2019 04:23
220,1,3,True,Graphic designer,1,lexical,5,sansforgetica,furning,non-word,Probably word,0.0,,,2968.0,7.995643604287271,60,ok,05-04-2019 04:23
221,1,3,True,Graphic designer,1,lexical,6,sansforgetica,garden,word,Sure word,1.0,,,2312.0,7.7458682297922685,60,ok,05-04-2019 04:23
222,1,3,True,Graphic designer,1,lexical,7,sansforgetica,pronomail,non-word,Probably non-word,1.0,,,4141.0,8.328692583545568,60,ok,05-04-2019 04:23
223,1,3,True,Graphic designer,1,lexical,8,sansforgetica,species,word,Sure word,1.0,,,2379.0,7.774435510302958,60,ok,05-04-2019 04:23
224,1,3,True,Graphic designer,1,lexical,9,sansforgetica,exist,word,Sure word,1.0,,,2899.0,7.972121128921655,60,ok,05-04-2019 04:23
225,1,3,True,Graphic designer,1,lexical,10,sansforgetica,butlized,non-word,Probably non-word,1.0,,,3406.0,8.133293861222633,60,ok,05-04-2019 04:23
226,1,3,True,Graphic designer,1,lexical,11,sansforgetica,primals,non-word,Probably word,0.0,,,4308.0,8.36822903827628,60,ok,05-04-2019 04:23
227,1,3,True,Graphic designer,1,lexical,12,sansforgetica,speed,word,Sure word,1.0,,,1795.0,7.492760300922379,60,ok,05-04-2019 04:23
228,1,3,True,Graphic designer,1,lexical,13,sansforgetica,explitition,non-word,Probably word,0.0,,,2674.0,7.891330757661889,60,ok,05-04-2019 04:23
229,1,3,True,Graphic designer,1,lexical,14,sansforgetica,press,word,Sure word,1.0,,,1643.0,7.404279118037268,60,ok,05-04-2019 04:23
230,1,3,True,Graphic designer,1,lexical,15,sansforgetica,fament,non-word,Probably non-word,1.0,,,3170.0,8.061486866871327,60,ok,05-04-2019 04:23
231,1,3,True,Graphic designer,1,lexical,16,sansforgetica,couster,non-word,Probably non-word,1.0,,,4849.0,8.486527777105353,60,ok,05-04-2019 04:23
232,1,3,True,Graphic designer,1,lexical,17,sansforgetica,valeamer,non-word,Probably non-word,1.0,,,4732.0,8.462103225098277,60,ok,05-04-2019 04:23
233,1,3,True,Graphic designer,1,lexical,18,sansforgetica,couple,word,Sure word,1.0,,,3700.0,8.216088098632316,60,ok,05-04-2019 04:23
234,1,3,True,Graphic designer,1,lexical,19,sansforgetica,regular,word,Sure word,1.0,,,2274.0,7.729295674310483,60,ok,05-04-2019 04:23
235,1,3,True,Graphic designer,1,lexical,20,sansforgetica,holiday,word,Sure word,1.0,,,1707.0,7.442492722794441,60,ok,05-04-2019 04:23
236,1,3,True,Graphic designer,1,recognition,1,sansforgetica,valeamer,non-word,Sure seen,1.0,seen,valeamer,3100.0,8.039157390473237,60,ok,05-04-2019 04:23
237,1,3,True,Graphic designer,1,recognition,2,sansforgetica,relations,word,Sure not seen,1.0,not seen,regular,6203.0,8.732788324973118,60,ok,05-04-2019 04:23
238,1,3,True,Graphic designer,1,recognition,3,sansforgetica,violetic,non-word,Sure not seen,1.0,not seen,villsite,2202.0,7.697121317282625,60,ok,05-04-2019 04:23
239,1,3,True,Graphic designer,1,recognition,4,sansforgetica,speech,word,Sure not seen,1.0,not seen,species,3049.0,8.022568946988255,60,ok,05-04-2019 04:23
240,1,3,True,Graphic designer,1,recognition,5,sansforgetica,exist,word,Sure seen,1.0,seen,exist,1843.0,7.519149957669822,60,ok,05-04-2019 04:23
241,1,3,True,Graphic designer,1,recognition,6,sansforgetica,general,word,Sure not seen,1.0,not seen,garden,3401.0,8.131824785007195,60,ok,05-04-2019 04:23
242,1,3,True,Graphic designer,1,recognition,7,sansforgetica,courses,word,Probably seen,0.0,not seen,couple,4357.0,8.379539026117444,60,ok,05-04-2019 04:23
243,1,3,True,Graphic designer,1,recognition,8,sansforgetica,press,word,Sure seen,1.0,seen,press,1803.0,7.497207223203317,60,ok,05-04-2019 04:23
244,1,3,True,Graphic designer,1,recognition,9,sansforgetica,pronomail,non-word,Sure seen,1.0,seen,pronomail,7358.0,8.903543435664721,60,ok,05-04-2019 04:23
245,1,3,True,Graphic designer,1,recognition,10,sansforgetica,explowed,non-word,Sure not seen,1.0,not seen,explitition,2361.0,7.766840537085513,60,ok,05-04-2019 04:23
246,1,3,True,Graphic designer,1,recognition,11,sansforgetica,antendship,non-word,Sure not seen,0.0,seen,antendship,2064.0,7.632401126601453,60,ok,05-04-2019 04:23
247,1,3,True,Graphic designer,1,recognition,12,sansforgetica,holiday,word,Sure seen,1.0,seen,holiday,1774.0,7.480992162869525,60,ok,05-04-2019 04:23
248,1,3,True,Graphic designer,1,recognition,13,sansforgetica,butlized,non-word,Sure seen,1.0,seen,butlized,2429.0,7.795234929002173,60,ok,05-04-2019 04:23
249,1,3,True,Graphic designer,1,recognition,14,sansforgetica,crepards,non-word,Sure not seen,1.0,not seen,couster,1835.0,7.51479976048867,60,ok,05-04-2019 04:23
250,1,3,True,Graphic designer,1,recognition,15,sansforgetica,pritain,non-word,Sure not seen,1.0,not seen,primals,2246.0,7.716906135298388,60,ok,05-04-2019 04:23
251,1,3,True,Graphic designer,1,recognition,16,sansforgetica,successful,word,Sure seen,1.0,seen,successful,1751.0,7.467942332285852,60,ok,05-04-2019 04:23
252,1,3,True,Graphic designer,2,lexical,1,arial,winnot,non-word,Probably non-word,1.0,,,6826.0,8.828494129466653,46,easy to read,05-04-2019 04:23
253,1,3,True,Graphic designer,2,lexical,2,arial,childred,non-word,Probably non-word,1.0,,,2157.0,7.676473646389157,46,easy to read,05-04-2019 04:23
254,1,3,True,Graphic designer,2,lexical,3,arial,chaminue,non-word,Probably non-word,1.0,,,4077.0,8.313116702819253,46,easy to read,05-04-2019 04:23
255,1,3,True,Graphic designer,2,lexical,4,arial,stayed,word,Probably non-word,0.0,,,3676.0,8.209580483475577,46,easy to read,05-04-2019 04:23
256,1,3,True,Graphic designer,2,lexical,5,arial,discrings,non-word,Probably non-word,1.0,,,2149.0,7.672757896642509,46,easy to read,05-04-2019 04:23
257,1,3,True,Graphic designer,2,lexical,6,arial,simplete,non-word,Probably non-word,1.0,,,1939.0,7.569927655242653,46,easy to read,05-04-2019 04:23
258,1,3,True,Graphic designer,2,lexical,7,arial,heart,word,Sure word,1.0,,,2877.0,7.964503363551548,46,easy to read,05-04-2019 04:23
259,1,3,True,Graphic designer,2,lexical,8,arial,worst,word,Sure word,1.0,,,2029.0,7.615298339825815,46,easy to read,05-04-2019 04:23
260,1,3,True,Graphic designer,2,lexical,9,arial,smell,word,Sure word,1.0,,,1438.0,7.271008538280992,46,easy to read,05-04-2019 04:23
261,1,3,True,Graphic designer,2,lexical,10,arial,sitting,word,Sure word,1.0,,,1389.0,7.236339342754344,46,easy to read,05-04-2019 04:23
262,1,3,True,Graphic designer,2,lexical,11,arial,hopulatute,non-word,Sure non-word,1.0,,,4698.0,8.454892165218858,46,easy to read,05-04-2019 04:23
263,1,3,True,Graphic designer,2,lexical,12,arial,consicular,non-word,Probably non-word,1.0,,,2118.0,7.658227526161353,46,easy to read,05-04-2019 04:23
264,1,3,True,Graphic designer,2,lexical,13,arial,stick,word,Sure word,1.0,,,1575.0,7.362010551259734,46,easy to read,05-04-2019 04:23
265,1,3,True,Graphic designer,2,lexical,14,arial,brisis,non-word,Probably non-word,1.0,,,2432.0,7.796469243086058,46,easy to read,05-04-2019 04:23
266,1,3,True,Graphic designer,2,lexical,15,arial,afford,word,Sure word,1.0,,,1643.0,7.404279118037268,46,easy to read,05-04-2019 04:23
267,1,3,True,Graphic designer,2,lexical,16,arial,parliament,word,Sure word,1.0,,,1382.0,7.2312870043276165,46,easy to read,05-04-2019 04:23
268,1,3,True,Graphic designer,2,lexical,17,arial,trade,word,Sure word,1.0,,,1586.0,7.368970402194793,46,easy to read,05-04-2019 04:23
269,1,3,True,Graphic designer,2,lexical,18,arial,chaped,non-word,Probably word,0.0,,,2878.0,7.964850887447313,46,easy to read,05-04-2019 04:23
270,1,3,True,Graphic designer,2,lexical,19,arial,weapons,word,Sure word,1.0,,,1555.0,7.3492308246133335,46,easy to read,05-04-2019 04:23
271,1,3,True,Graphic designer,2,lexical,20,arial,descussed,non-word,Sure non-word,1.0,,,3288.0,8.098034756176071,46,easy to read,05-04-2019 04:23
272,1,3,True,Graphic designer,2,recognition,1,arial,trade,word,Sure seen,1.0,seen,trade,3929.0,8.27614021955846,46,easy to read,05-04-2019 04:23
273,1,3,True,Graphic designer,2,recognition,2,arial,withous,non-word,Sure not seen,1.0,not seen,winnot,1999.0,7.6004023345004,46,easy to read,05-04-2019 04:23
274,1,3,True,Graphic designer,2,recognition,3,arial,chares,non-word,Sure not seen,1.0,not seen,chaped,2273.0,7.728855823852543,46,easy to read,05-04-2019 04:23
275,1,3,True,Graphic designer,2,recognition,4,arial,hopulatute,non-word,Sure seen,1.0,seen,hopulatute,2950.0,7.989560449333865,46,easy to read,05-04-2019 04:23
276,1,3,True,Graphic designer,2,recognition,5,arial,afraid,word,Probably seen,0.0,not seen,afford,3202.0,8.07153089355666,46,easy to read,05-04-2019 04:23
277,1,3,True,Graphic designer,2,recognition,6,arial,discrings,non-word,Probably seen,1.0,seen,discrings,2091.0,7.645397699428632,46,easy to read,05-04-2019 04:23
278,1,3,True,Graphic designer,2,recognition,7,arial,champance,non-word,Probably seen,0.0,not seen,chaminue,3555.0,8.176110342237342,46,easy to read,05-04-2019 04:23
279,1,3,True,Graphic designer,2,recognition,8,arial,descussed,non-word,Sure seen,1.0,seen,descussed,3196.0,8.069655306886165,46,easy to read,05-04-2019 04:23
280,1,3,True,Graphic designer,2,recognition,9,arial,smell,word,Probably seen,1.0,seen,smell,2410.0,7.787382026484702,46,easy to read,05-04-2019 04:23
281,1,3,True,Graphic designer,2,recognition,10,arial,weapons,word,Sure seen,1.0,seen,weapons,2570.0,7.851661177889265,46,easy to read,05-04-2019 04:23
282,1,3,True,Graphic designer,2,recognition,11,arial,still,word,Probably seen,0.0,not seen,stick,2179.0,7.68662133494462,46,easy to read,05-04-2019 04:23
283,1,3,True,Graphic designer,2,recognition,12,arial,steps,word,Probably seen,0.0,not seen,stayed,1808.0,7.4999765409521215,46,easy to read,05-04-2019 04:23
284,1,3,True,Graphic designer,2,recognition,13,arial,sitting,word,Probably seen,1.0,seen,sitting,1936.0,7.568379267836523,46,easy to read,05-04-2019 04:23
285,1,3,True,Graphic designer,2,recognition,14,arial,sisture,non-word,Sure not seen,1.0,not seen,simplete,2026.0,7.613818684808629,46,easy to read,05-04-2019 04:23
286,1,3,True,Graphic designer,2,recognition,15,arial,heavily,word,Sure not seen,1.0,not seen,heart,1717.0,7.448333860897477,46,easy to read,05-04-2019 04:23
287,1,3,True,Graphic designer,2,recognition,16,arial,brisis,non-word,Sure not seen,0.0,seen,brisis,1841.0,7.518064181233077,46,easy to read,05-04-2019 04:23
288,1,4,True,Non-designer,1,lexical,1,arial,unpligatic,non-word,Sure non-word,1.0,,,3144.0,8.053251153549096,69,very easy to read,04-04-2019 22:31
289,1,4,True,Non-designer,1,lexical,2,arial,thrughts,non-word,Sure non-word,1.0,,,2866.0,7.960672608388117,69,very easy to read,04-04-2019 22:31
290,1,4,True,Non-designer,1,lexical,3,arial,lived,word,Sure word,1.0,,,2240.0,7.714231144849085,69,very easy to read,04-04-2019 22:31
291,1,4,True,Non-designer,1,lexical,4,arial,discussion,word,Sure word,1.0,,,1874.0,7.535830462798367,69,very easy to read,04-04-2019 22:31
292,1,4,True,Non-designer,1,lexical,5,arial,settled,word,Sure word,1.0,,,1854.0,7.5251007461257995,69,very easy to read,04-04-2019 22:31
293,1,4,True,Non-designer,1,lexical,6,arial,safety,word,Sure word,1.0,,,1747.0,7.465655310134057,69,very easy to read,04-04-2019 22:31
294,1,4,True,Non-designer,1,lexical,7,arial,places,word,Sure word,1.0,,,1868.0,7.532623618788787,69,very easy to read,04-04-2019 22:31
295,1,4,True,Non-designer,1,lexical,8,arial,removed,word,Sure word,1.0,,,1972.0,7.5868035351625815,69,very easy to read,04-04-2019 22:31
296,1,4,True,Non-designer,1,lexical,9,arial,answered,word,Sure word,1.0,,,1741.0,7.462214939768188,69,very easy to read,04-04-2019 22:31
297,1,4,True,Non-designer,1,lexical,10,arial,second,word,Sure word,1.0,,,1749.0,7.466799475018602,69,very easy to read,04-04-2019 22:31
298,1,4,True,Non-designer,1,lexical,11,arial,meade,non-word,Probably word,0.0,,,4295.0,8.365206834418355,69,very easy to read,04-04-2019 22:31
299,1,4,True,Non-designer,1,lexical,12,arial,mingerned,non-word,Sure non-word,1.0,,,3325.0,8.109224953089955,69,very easy to read,04-04-2019 22:31
300,1,4,True,Non-designer,1,lexical,13,arial,mershiaties,non-word,Sure non-word,1.0,,,2859.0,7.958227192322313,69,very easy to read,04-04-2019 22:31
301,1,4,True,Non-designer,1,lexical,14,arial,individered,non-word,Sure non-word,1.0,,,2609.0,7.866722285136729,69,very easy to read,04-04-2019 22:31
302,1,4,True,Non-designer,1,lexical,15,arial,otherwise,word,Sure word,1.0,,,2131.0,7.664346632098618,69,very easy to read,04-04-2019 22:31
303,1,4,True,Non-designer,1,lexical,16,arial,housement,non-word,Probably word,0.0,,,3947.0,8.280711075662849,69,very easy to read,04-04-2019 22:31
304,1,4,True,Non-designer,1,lexical,17,arial,entervished,non-word,Sure non-word,1.0,,,3458.0,8.148445666243235,69,very easy to read,04-04-2019 22:31
305,1,4,True,Non-designer,1,lexical,18,arial,genastially,non-word,Probably non-word,1.0,,,3182.0,8.065265208897733,69,very easy to read,04-04-2019 22:31
306,1,4,True,Non-designer,1,lexical,19,arial,physical,word,Sure word,1.0,,,1971.0,7.586296307152719,69,very easy to read,04-04-2019 22:31
307,1,4,True,Non-designer,1,lexical,20,arial,pillern,non-word,Probably word,0.0,,,3799.0,8.242493153187626,69,very easy to read,04-04-2019 22:31
308,1,4,True,Non-designer,1,recognition,1,arial,safety,word,Sure seen,1.0,seen,safety,2280.0,7.731930721948487,69,very easy to read,04-04-2019 22:31
309,1,4,True,Non-designer,1,recognition,2,arial,anybody,word,Sure not seen,1.0,not seen,answered,2754.0,7.9208096792886,69,very easy to read,04-04-2019 22:31
310,1,4,True,Non-designer,1,recognition,3,arial,discussion,word,Sure seen,1.0,seen,discussion,1834.0,7.51425465281641,69,very easy to read,04-04-2019 22:31
311,1,4,True,Non-designer,1,recognition,4,arial,individered,non-word,Sure seen,1.0,seen,individered,2803.0,7.9384455511647865,69,very easy to read,04-04-2019 22:31
312,1,4,True,Non-designer,1,recognition,5,arial,plactarshed,non-word,Sure seen,0.0,not seen,pillern,3876.0,8.262558973010657,69,very easy to read,04-04-2019 22:31
313,1,4,True,Non-designer,1,recognition,6,arial,mesters,non-word,Sure not seen,1.0,not seen,mershiaties,2561.0,7.848153086199527,69,very easy to read,04-04-2019 22:31
314,1,4,True,Non-designer,1,recognition,7,arial,entivisive,non-word,Probably seen,0.0,not seen,entervished,3724.0,8.222553638396956,69,very easy to read,04-04-2019 22:31
315,1,4,True,Non-designer,1,recognition,8,arial,thrughts,non-word,Sure seen,1.0,seen,thrughts,2302.0,7.741533589281827,69,very easy to read,04-04-2019 22:31
316,1,4,True,Non-designer,1,recognition,9,arial,removed,word,Probably seen,1.0,seen,removed,3083.0,8.03365842788615,69,very easy to read,04-04-2019 22:31
317,1,4,True,Non-designer,1,recognition,10,arial,picked,word,Probably seen,0.0,not seen,physical,2645.0,7.8804263442924,69,very easy to read,04-04-2019 22:31
318,1,4,True,Non-designer,1,recognition,11,arial,genastially,non-word,Sure seen,1.0,seen,genastially,2240.0,7.714231144849085,69,very easy to read,04-04-2019 22:31
319,1,4,True,Non-designer,1,recognition,12,arial,meaftsmas,non-word,Probably not seen,1.0,not seen,meade,5218.0,8.559869465696673,69,very easy to read,04-04-2019 22:31
320,1,4,True,Non-designer,1,recognition,13,arial,unpligatic,non-word,Sure seen,1.0,seen,unpligatic,2319.0,7.7488913372555315,69,very easy to read,04-04-2019 22:31
321,1,4,True,Non-designer,1,recognition,14,arial,secret,word,Probably seen,0.0,not seen,second,3607.0,8.19063168090354,69,very easy to read,04-04-2019 22:31
322,1,4,True,Non-designer,1,recognition,15,arial,settled,word,Sure seen,1.0,seen,settled,2138.0,7.6676260915849905,69,very easy to read,04-04-2019 22:31
323,1,4,True,Non-designer,1,recognition,16,arial,living,word,Sure seen,0.0,not seen,lived,1956.0,7.578656850594762,69,very easy to read,04-04-2019 22:31
324,1,4,True,Non-designer,2,lexical,1,sansforgetica,cloature,non-word,Probably non-word,1.0,,,4050.0,8.306472160100585,44,very difficult to read,04-04-2019 22:31
325,1,4,True,Non-designer,2,lexical,2,sansforgetica,reasonatic,non-word,Probably non-word,1.0,,,3045.0,8.021256180143997,44,very difficult to read,04-04-2019 22:31
326,1,4,True,Non-designer,2,lexical,3,sansforgetica,weises,non-word,Sure non-word,1.0,,,3682.0,8.211211361793023,44,very difficult to read,04-04-2019 22:31
327,1,4,True,Non-designer,2,lexical,4,sansforgetica,contrimenty,non-word,Probably non-word,1.0,,,3976.0,8.288031567776464,44,very difficult to read,04-04-2019 22:31
328,1,4,True,Non-designer,2,lexical,5,sansforgetica,utteral,non-word,Probably word,0.0,,,4234.0,8.350902451694811,44,very difficult to read,04-04-2019 22:31
329,1,4,True,Non-designer,2,lexical,6,sansforgetica,vegitorken,non-word,Probably non-word,1.0,,,2910.0,7.975908360165538,44,very difficult to read,04-04-2019 22:31
330,1,4,True,Non-designer,2,lexical,7,sansforgetica,shound,non-word,Probably non-word,1.0,,,3896.0,8.267705664762426,44,very difficult to read,04-04-2019 22:31
331,1,4,True,Non-designer,2,lexical,8,sansforgetica,water,word,Sure word,1.0,,,2072.0,7.636269603379373,44,very difficult to read,04-04-2019 22:31
332,1,4,True,Non-designer,2,lexical,9,sansforgetica,learning,word,Sure word,1.0,,,1844.0,7.5196924041165385,44,very difficult to read,04-04-2019 22:31
333,1,4,True,Non-designer,2,lexical,10,sansforgetica,seemed,word,Sure word,1.0,,,2494.0,7.821643126239983,44,very difficult to read,04-04-2019 22:31
334,1,4,True,Non-designer,2,lexical,11,sansforgetica,thirty,word,Sure word,1.0,,,3254.0,8.087640287778981,44,very difficult to read,04-04-2019 22:31
335,1,4,True,Non-designer,2,lexical,12,sansforgetica,trads,non-word,Probably word,0.0,,,4908.0,8.498621805830801,44,very difficult to read,04-04-2019 22:31
336,1,4,True,Non-designer,2,lexical,13,sansforgetica,leading,word,Sure word,1.0,,,2053.0,7.627057417018933,44,very difficult to read,04-04-2019 22:31
337,1,4,True,Non-designer,2,lexical,14,sansforgetica,increase,word,Sure word,1.0,,,2147.0,7.671826797878782,44,very difficult to read,04-04-2019 22:31
338,1,4,True,Non-designer,2,lexical,15,sansforgetica,statement,word,Sure word,1.0,,,1977.0,7.589335823170616,44,very difficult to read,04-04-2019 22:31
339,1,4,True,Non-designer,2,lexical,16,sansforgetica,achieved,word,Sure word,1.0,,,2225.0,7.7075121946003415,44,very difficult to read,04-04-2019 22:31
340,1,4,True,Non-designer,2,lexical,17,sansforgetica,papid,non-word,Probably word,0.0,,,4402.0,8.389814262086407,44,very difficult to read,04-04-2019 22:31
341,1,4,True,Non-designer,2,lexical,18,sansforgetica,tothout,non-word,Sure non-word,1.0,,,4220.0,8.347590407030058,44,very difficult to read,04-04-2019 22:31
342,1,4,True,Non-designer,2,lexical,19,sansforgetica,service,word,Sure word,1.0,,,2259.0,7.7226775164680035,44,very difficult to read,04-04-2019 22:31
343,1,4,True,Non-designer,2,lexical,20,sansforgetica,government,word,Sure word,1.0,,,2049.0,7.625107148238901,44,very difficult to read,04-04-2019 22:31
344,1,4,True,Non-designer,2,recognition,1,sansforgetica,weitair,non-word,Sure not seen,1.0,not seen,weises,3572.0,8.18088094199639,44,very difficult to read,04-04-2019 22:31
345,1,4,True,Non-designer,2,recognition,2,sansforgetica,reasonatic,non-word,Sure seen,1.0,seen,reasonatic,2488.0,7.81923445385907,44,very difficult to read,04-04-2019 22:31
346,1,4,True,Non-designer,2,recognition,3,sansforgetica,controyed,non-word,Sure not seen,1.0,not seen,contrimenty,3423.0,8.138272638530186,44,very difficult to read,04-04-2019 22:31
347,1,4,True,Non-designer,2,recognition,4,sansforgetica,ultomobile,non-word,Sure not seen,1.0,not seen,utteral,2798.0,7.936660155225426,44,very difficult to read,04-04-2019 22:31
348,1,4,True,Non-designer,2,recognition,5,sansforgetica,gradually,word,Probably not seen,1.0,not seen,government,3409.0,8.134174272137901,44,very difficult to read,04-04-2019 22:31
349,1,4,True,Non-designer,2,recognition,6,sansforgetica,statement,word,Sure seen,1.0,seen,statement,2125.0,7.661527081358518,44,very difficult to read,04-04-2019 22:31
350,1,4,True,Non-designer,2,recognition,7,sansforgetica,least,word,Probably seen,0.0,not seen,learning,2996.0,8.005033344637111,44,very difficult to read,04-04-2019 22:31
351,1,4,True,Non-designer,2,recognition,8,sansforgetica,wealth,word,Probably seen,0.0,not seen,water,2306.0,7.743269700829004,44,very difficult to read,04-04-2019 22:31
352,1,4,True,Non-designer,2,recognition,9,sansforgetica,cloature,non-word,Sure seen,1.0,seen,cloature,2504.0,7.825644732219988,44,very difficult to read,04-04-2019 22:31
353,1,4,True,Non-designer,2,recognition,10,sansforgetica,increase,word,Probably seen,1.0,seen,increase,5320.0,8.57922858233569,44,very difficult to read,04-04-2019 22:31
354,1,4,True,Non-designer,2,recognition,11,sansforgetica,seemed,word,Probably seen,1.0,seen,seemed,2710.0,7.904703913873748,44,very difficult to read,04-04-2019 22:31
355,1,4,True,Non-designer,2,recognition,12,sansforgetica,shound,non-word,Sure seen,1.0,seen,shound,2582.0,7.856319571406587,44,very difficult to read,04-04-2019 22:31
356,1,4,True,Non-designer,2,recognition,13,sansforgetica,service,word,Probably seen,1.0,seen,service,2682.0,7.894318063841625,44,very difficult to read,04-04-2019 22:31
357,1,4,True,Non-designer,2,recognition,14,sansforgetica,trads,non-word,Sure seen,1.0,seen,trads,2200.0,7.696212639346408,44,very difficult to read,04-04-2019 22:31
358,1,4,True,Non-designer,2,recognition,15,sansforgetica,tounning,non-word,Probably seen,0.0,not seen,tothout,4323.0,8.371704884667631,44,very difficult to read,04-04-2019 22:31
359,1,4,True,Non-designer,2,recognition,16,sansforgetica,those,word,Probably not seen,1.0,not seen,thirty,4261.0,8.357259153499912,44,very difficult to read,04-04-2019 22:31
360,1,5,True,Letter designer,1,lexical,1,arial,model,word,Sure word,1.0,,,1976.0,7.588829878307812,69,difficult to read,04-04-2019 20:58
361,1,5,True,Letter designer,1,lexical,2,arial,having,word,Sure word,1.0,,,1530.0,7.333023014386481,69,difficult to read,04-04-2019 20:58
362,1,5,True,Letter designer,1,lexical,3,arial,wonderful,word,Sure word,1.0,,,1653.0,7.410347097821023,69,difficult to read,04-04-2019 20:58
363,1,5,True,Letter designer,1,lexical,4,arial,wanted,word,Sure word,1.0,,,1146.0,7.044032897274685,69,difficult to read,04-04-2019 20:58
364,1,5,True,Letter designer,1,lexical,5,arial,genscists,non-word,Probably non-word,1.0,,,3183.0,8.065579427282092,69,difficult to read,04-04-2019 20:58
365,1,5,True,Letter designer,1,lexical,6,arial,inducial,non-word,Sure word,0.0,,,1943.0,7.57198844937744,69,difficult to read,04-04-2019 20:58
366,1,5,True,Letter designer,1,lexical,7,arial,blearate,non-word,Probably word,0.0,,,2599.0,7.86288203464149,69,difficult to read,04-04-2019 20:58
367,1,5,True,Letter designer,1,lexical,8,arial,sugoselves,non-word,Probably non-word,1.0,,,3217.0,8.076204527239026,69,difficult to read,04-04-2019 20:58
368,1,5,True,Letter designer,1,lexical,9,arial,movements,word,Sure word,1.0,,,1685.0,7.429520842786462,69,difficult to read,04-04-2019 20:58
369,1,5,True,Letter designer,1,lexical,10,arial,pericer,non-word,Probably non-word,1.0,,,3227.0,8.079308192051961,69,difficult to read,04-04-2019 20:58
370,1,5,True,Letter designer,1,lexical,11,arial,seven,word,Sure word,1.0,,,1438.0,7.271008538280992,69,difficult to read,04-04-2019 20:58
371,1,5,True,Letter designer,1,lexical,12,arial,hospital,word,Sure word,1.0,,,1137.0,7.036148493750536,69,difficult to read,04-04-2019 20:58
372,1,5,True,Letter designer,1,lexical,13,arial,eleatome,non-word,Probably word,0.0,,,3656.0,8.204124932574041,69,difficult to read,04-04-2019 20:58
373,1,5,True,Letter designer,1,lexical,14,arial,mesters,non-word,Probably non-word,1.0,,,3534.0,8.170185652879642,69,difficult to read,04-04-2019 20:58
374,1,5,True,Letter designer,1,lexical,15,arial,remangth,non-word,Probably non-word,1.0,,,3782.0,8.238008249218401,69,difficult to read,04-04-2019 20:58
375,1,5,True,Letter designer,1,lexical,16,arial,concern,word,Sure word,1.0,,,2511.0,7.8284363591575845,69,difficult to read,04-04-2019 20:58
376,1,5,True,Letter designer,1,lexical,17,arial,announced,word,Sure word,1.0,,,2695.0,7.899153483343098,69,difficult to read,04-04-2019 20:58
377,1,5,True,Letter designer,1,lexical,18,arial,former,word,Sure word,1.0,,,958.0,6.86484777797086,69,difficult to read,04-04-2019 20:58
378,1,5,True,Letter designer,1,lexical,19,arial,impording,non-word,Probably non-word,1.0,,,2427.0,7.794411205726602,69,difficult to read,04-04-2019 20:58
379,1,5,True,Letter designer,1,lexical,20,arial,nommidated,non-word,Probably non-word,1.0,,,3973.0,8.287276755814599,69,difficult to read,04-04-2019 20:58
380,1,5,True,Letter designer,1,recognition,1,arial,gensibility,non-word,Sure not seen,1.0,not seen,genscists,10778.0,9.285262298493445,69,difficult to read,04-04-2019 20:58
381,1,5,True,Letter designer,1,recognition,2,arial,nommidated,non-word,Sure seen,1.0,seen,nommidated,3025.0,8.014666370464942,69,difficult to read,04-04-2019 20:58
382,1,5,True,Letter designer,1,recognition,3,arial,eleatome,non-word,Sure not seen,0.0,seen,eleatome,2717.0,7.907283609426348,69,difficult to read,04-04-2019 20:58
383,1,5,True,Letter designer,1,recognition,4,arial,wanted,word,Sure seen,1.0,seen,wanted,1482.0,7.301147805856032,69,difficult to read,04-04-2019 20:58
384,1,5,True,Letter designer,1,recognition,5,arial,announced,word,Sure seen,1.0,seen,announced,2172.0,7.683403681053826,69,difficult to read,04-04-2019 20:58
385,1,5,True,Letter designer,1,recognition,6,arial,model,word,Sure seen,1.0,seen,model,1072.0,6.977281341630747,69,difficult to read,04-04-2019 20:58
386,1,5,True,Letter designer,1,recognition,7,arial,sunget,non-word,Sure not seen,1.0,not seen,sugoselves,2550.0,7.843848638152473,69,difficult to read,04-04-2019 20:58
387,1,5,True,Letter designer,1,recognition,8,arial,hotel,word,Probably not seen,1.0,not seen,hospital,3133.0,8.049746290952191,69,difficult to read,04-04-2019 20:58
388,1,5,True,Letter designer,1,recognition,9,arial,condition,word,Probably seen,0.0,not seen,concern,2693.0,7.898411092811599,69,difficult to read,04-04-2019 20:58
389,1,5,True,Letter designer,1,recognition,10,arial,blearate,non-word,Sure seen,1.0,seen,blearate,2546.0,7.842278779117353,69,difficult to read,04-04-2019 20:58
390,1,5,True,Letter designer,1,recognition,11,arial,moving,word,Sure seen,0.0,not seen,movements,2062.0,7.631431664576906,69,difficult to read,04-04-2019 20:58
391,1,5,True,Letter designer,1,recognition,12,arial,former,word,Sure seen,1.0,seen,former,1235.0,7.118826249062077,69,difficult to read,04-04-2019 20:58
392,1,5,True,Letter designer,1,recognition,13,arial,impreasive,non-word,Probably not seen,1.0,not seen,impording,2014.0,7.607878073278508,69,difficult to read,04-04-2019 20:58
393,1,5,True,Letter designer,1,recognition,14,arial,several,word,Sure not seen,1.0,not seen,seven,1835.0,7.51479976048867,69,difficult to read,04-04-2019 20:58
394,1,5,True,Letter designer,1,recognition,15,arial,inducial,non-word,Sure seen,1.0,seen,inducial,1815.0,7.503840746698952,69,difficult to read,04-04-2019 20:58
395,1,5,True,Letter designer,1,recognition,16,arial,perietail,non-word,Sure not seen,1.0,not seen,pericer,3946.0,8.28045768658256,69,difficult to read,04-04-2019 20:58
396,1,5,True,Letter designer,2,lexical,1,sansforgetica,weight,word,Sure word,1.0,,,4484.0,8.40827078419205,59,very difficult to read,04-04-2019 20:58
397,1,5,True,Letter designer,2,lexical,2,sansforgetica,perfectly,word,Sure word,1.0,,,1965.0,7.583247524303363,59,very difficult to read,04-04-2019 20:58
398,1,5,True,Letter designer,2,lexical,3,sansforgetica,decial,non-word,Probably non-word,1.0,,,2335.0,7.755767170102997,59,very difficult to read,04-04-2019 20:58
399,1,5,True,Letter designer,2,lexical,4,sansforgetica,relatively,word,Sure word,1.0,,,1836.0,7.515344571180437,59,very difficult to read,04-04-2019 20:58
400,1,5,True,Letter designer,2,lexical,5,sansforgetica,fingers,word,Sure word,1.0,,,3878.0,8.263074835802596,59,very difficult to read,04-04-2019 20:58
401,1,5,True,Letter designer,2,lexical,6,sansforgetica,enreloping,non-word,Probably non-word,1.0,,,3530.0,8.169053149927343,59,very difficult to read,04-04-2019 20:58
402,1,5,True,Letter designer,2,lexical,7,sansforgetica,making,word,Sure word,1.0,,,1767.0,7.477038472319696,59,very difficult to read,04-04-2019 20:58
403,1,5,True,Letter designer,2,lexical,8,sansforgetica,arror,non-word,Probably non-word,1.0,,,3457.0,8.148156439921625,59,very difficult to read,04-04-2019 20:58
404,1,5,True,Letter designer,2,lexical,9,sansforgetica,sprikelf,non-word,Probably non-word,1.0,,,4651.0,8.444837529224097,59,very difficult to read,04-04-2019 20:58
405,1,5,True,Letter designer,2,lexical,10,sansforgetica,confersion,non-word,Probably non-word,1.0,,,2236.0,7.712443834274991,59,very difficult to read,04-04-2019 20:58
406,1,5,True,Letter designer,2,lexical,11,sansforgetica,glizagely,non-word,Probably non-word,1.0,,,1730.0,7.455876687491824,59,very difficult to read,04-04-2019 20:58
407,1,5,True,Letter designer,2,lexical,12,sansforgetica,occurred,word,Sure word,1.0,,,2970.0,7.996317231796747,59,very difficult to read,04-04-2019 20:58
408,1,5,True,Letter designer,2,lexical,13,sansforgetica,furnion,non-word,Probably non-word,1.0,,,1981.0,7.591357046698551,59,very difficult to read,04-04-2019 20:58
409,1,5,True,Letter designer,2,lexical,14,sansforgetica,creviver,non-word,Probably non-word,1.0,,,3156.0,8.057060681965767,59,very difficult to read,04-04-2019 20:58
410,1,5,True,Letter designer,2,lexical,15,sansforgetica,latter,word,Probably word,1.0,,,4450.0,8.400659375160286,59,very difficult to read,04-04-2019 20:58
411,1,5,True,Letter designer,2,lexical,16,sansforgetica,difference,word,Sure word,1.0,,,1315.0,7.181591944611865,59,very difficult to read,04-04-2019 20:58
412,1,5,True,Letter designer,2,lexical,17,sansforgetica,rivies,non-word,Probably word,0.0,,,2619.0,7.870547844507714,59,very difficult to read,04-04-2019 20:58
413,1,5,True,Letter designer,2,lexical,18,sansforgetica,laugh,word,Sure word,1.0,,,1494.0,7.309212365692762,59,very difficult to read,04-04-2019 20:58
414,1,5,True,Letter designer,2,lexical,19,sansforgetica,intentarine,non-word,Probably non-word,1.0,,,6554.0,8.787830829258759,59,very difficult to read,04-04-2019 20:58
415,1,5,True,Letter designer,2,lexical,20,sansforgetica,studies,word,Sure word,1.0,,,34040.0,10.435291582687313,59,very difficult to read,04-04-2019 20:58
416,1,5,True,Letter designer,2,recognition,1,sansforgetica,studies,word,Sure seen,1.0,seen,studies,1825.0,7.509335266016593,59,very difficult to read,04-04-2019 20:58
417,1,5,True,Letter designer,2,recognition,2,sansforgetica,finished,word,Sure seen,0.0,not seen,fingers,2866.0,7.960672608388117,59,very difficult to read,04-04-2019 20:58
418,1,5,True,Letter designer,2,recognition,3,sansforgetica,entervished,non-word,Probably not seen,1.0,not seen,enreloping,2172.0,7.683403681053826,59,very difficult to read,04-04-2019 20:58
419,1,5,True,Letter designer,2,recognition,4,sansforgetica,creviver,non-word,Sure seen,1.0,seen,creviver,2865.0,7.960323629148839,59,very difficult to read,04-04-2019 20:58
420,1,5,True,Letter designer,2,recognition,5,sansforgetica,arting,non-word,Probably not seen,1.0,not seen,arror,1943.0,7.57198844937744,59,very difficult to read,04-04-2019 20:58
421,1,5,True,Letter designer,2,recognition,6,sansforgetica,relief,word,Probably not seen,1.0,not seen,relatively,1489.0,7.305860032684009,59,very difficult to read,04-04-2019 20:58
422,1,5,True,Letter designer,2,recognition,7,sansforgetica,gnaning,non-word,Probably not seen,1.0,not seen,glizagely,1596.0,7.375255778009754,59,very difficult to read,04-04-2019 20:58
423,1,5,True,Letter designer,2,recognition,8,sansforgetica,laugh,word,Sure seen,1.0,seen,laugh,1345.0,7.2041492920359405,59,very difficult to read,04-04-2019 20:58
424,1,5,True,Letter designer,2,recognition,9,sansforgetica,rivies,non-word,Sure seen,1.0,seen,rivies,1575.0,7.362010551259734,59,very difficult to read,04-04-2019 20:58
425,1,5,True,Letter designer,2,recognition,10,sansforgetica,weight,word,Sure seen,1.0,seen,weight,1120.0,7.021083964289139,59,very difficult to read,04-04-2019 20:58
426,1,5,True,Letter designer,2,recognition,11,sansforgetica,decial,non-word,Probably seen,1.0,seen,decial,2687.0,7.8961806086154915,59,very difficult to read,04-04-2019 20:58
427,1,5,True,Letter designer,2,recognition,12,sansforgetica,different,word,Probably not seen,1.0,not seen,difference,2405.0,7.7853051825398625,59,very difficult to read,04-04-2019 20:58
428,1,5,True,Letter designer,2,recognition,13,sansforgetica,intentarine,non-word,Sure seen,1.0,seen,intentarine,2485.0,7.8180279385307285,59,very difficult to read,04-04-2019 20:58
429,1,5,True,Letter designer,2,recognition,14,sansforgetica,confusses,non-word,Probably not seen,1.0,not seen,confersion,1913.0,7.556427969440253,59,very difficult to read,04-04-2019 20:58
430,1,5,True,Letter designer,2,recognition,15,sansforgetica,performance,word,Sure not seen,1.0,not seen,perfectly,1965.0,7.583247524303363,59,very difficult to read,04-04-2019 20:58
431,1,5,True,Letter designer,2,recognition,16,sansforgetica,latter,word,Sure seen,1.0,seen,latter,1705.0,7.4413203897176174,59,very difficult to read,04-04-2019 20:58
432,1,6,True,Non-designer,1,lexical,1,sansforgetica,previous,word,Sure word,1.0,,,2429.0,7.795234929002173,50,difficult to read,04-04-2019 20:30
433,1,6,True,Non-designer,1,lexical,2,sansforgetica,comes,word,Sure word,1.0,,,2146.0,7.671360923190644,50,difficult to read,04-04-2019 20:30
434,1,6,True,Non-designer,1,lexical,3,sansforgetica,stage,word,Sure word,1.0,,,1728.0,7.454719949364001,50,difficult to read,04-04-2019 20:30
435,1,6,True,Non-designer,1,lexical,4,sansforgetica,legetation,non-word,Probably non-word,1.0,,,2350.0,7.762170607138205,50,difficult to read,04-04-2019 20:30
436,1,6,True,Non-designer,1,lexical,5,sansforgetica,parturceful,non-word,Sure non-word,1.0,,,3366.0,8.121480374750751,50,difficult to read,04-04-2019 20:30
437,1,6,True,Non-designer,1,lexical,6,sansforgetica,coods,non-word,Sure non-word,1.0,,,2013.0,7.607381425639791,50,difficult to read,04-04-2019 20:30
438,1,6,True,Non-designer,1,lexical,7,sansforgetica,unwitituted,non-word,Sure non-word,1.0,,,2605.0,7.865187954187468,50,difficult to read,04-04-2019 20:30
439,1,6,True,Non-designer,1,lexical,8,sansforgetica,enemy,word,Sure word,1.0,,,2005.0,7.60339933974067,50,difficult to read,04-04-2019 20:30
440,1,6,True,Non-designer,1,lexical,9,sansforgetica,travel,word,Sure word,1.0,,,1516.0,7.323830566202317,50,difficult to read,04-04-2019 20:30
441,1,6,True,Non-designer,1,lexical,10,sansforgetica,murching,non-word,Probably non-word,1.0,,,2681.0,7.893945138235959,50,difficult to read,04-04-2019 20:30
442,1,6,True,Non-designer,1,lexical,11,sansforgetica,character,word,Sure word,1.0,,,3071.0,8.029758520440822,50,difficult to read,04-04-2019 20:30
443,1,6,True,Non-designer,1,lexical,12,sansforgetica,reaction,word,Sure word,1.0,,,1761.0,7.473637108496206,50,difficult to read,04-04-2019 20:30
444,1,6,True,Non-designer,1,lexical,13,sansforgetica,memall,non-word,Probably non-word,1.0,,,2538.0,7.839131648274332,50,difficult to read,04-04-2019 20:30
445,1,6,True,Non-designer,1,lexical,14,sansforgetica,parmined,non-word,Probably non-word,1.0,,,2137.0,7.667158255319147,50,difficult to read,04-04-2019 20:30
446,1,6,True,Non-designer,1,lexical,15,sansforgetica,undulained,non-word,Probably non-word,1.0,,,2604.0,7.8648040033284605,50,difficult to read,04-04-2019 20:30
447,1,6,True,Non-designer,1,lexical,16,sansforgetica,bedroom,word,Sure word,1.0,,,1872.0,7.534762657037537,50,difficult to read,04-04-2019 20:30
448,1,6,True,Non-designer,1,lexical,17,sansforgetica,bodies,word,Sure word,1.0,,,1449.0,7.278628942320683,50,difficult to read,04-04-2019 20:30
449,1,6,True,Non-designer,1,lexical,18,sansforgetica,unfortiated,non-word,Probably word,0.0,,,2587.0,7.858254182186029,50,difficult to read,04-04-2019 20:30
450,1,6,True,Non-designer,1,lexical,19,sansforgetica,neilion,non-word,Sure non-word,1.0,,,2319.0,7.7488913372555315,50,difficult to read,04-04-2019 20:30
451,1,6,True,Non-designer,1,lexical,20,sansforgetica,murder,word,Sure word,1.0,,,1833.0,7.513709247839705,50,difficult to read,04-04-2019 20:30
452,1,6,True,Non-designer,1,recognition,1,sansforgetica,comes,word,Sure seen,1.0,seen,comes,3587.0,8.185071477532281,50,difficult to read,04-04-2019 20:30
453,1,6,True,Non-designer,1,recognition,2,sansforgetica,uniffests,non-word,Sure not seen,1.0,not seen,unfortiated,5066.0,8.53030683056162,50,difficult to read,04-04-2019 20:30
454,1,6,True,Non-designer,1,recognition,3,sansforgetica,partnestion,non-word,Probably not seen,1.0,not seen,parmined,3116.0,8.044305406990638,50,difficult to read,04-04-2019 20:30
455,1,6,True,Non-designer,1,recognition,4,sansforgetica,reaction,word,Sure seen,1.0,seen,reaction,1925.0,7.562681246721884,50,difficult to read,04-04-2019 20:30
456,1,6,True,Non-designer,1,recognition,5,sansforgetica,before,word,Sure seen,0.0,not seen,bedroom,2285.0,7.734121303328305,50,difficult to read,04-04-2019 20:30
457,1,6,True,Non-designer,1,recognition,6,sansforgetica,undulained,non-word,Probably seen,1.0,seen,undulained,3206.0,8.072779333169498,50,difficult to read,04-04-2019 20:30
458,1,6,True,Non-designer,1,recognition,7,sansforgetica,prices,word,Probably not seen,1.0,not seen,previous,773.0,6.650279048587422,50,difficult to read,04-04-2019 20:30
459,1,6,True,Non-designer,1,recognition,8,sansforgetica,memand,non-word,Probably not seen,1.0,not seen,memall,3526.0,8.167919362957816,50,difficult to read,04-04-2019 20:30
460,1,6,True,Non-designer,1,recognition,9,sansforgetica,energy,word,Probably seen,0.0,not seen,enemy,2288.0,7.735433352499688,50,difficult to read,04-04-2019 20:30
461,1,6,True,Non-designer,1,recognition,10,sansforgetica,unwitituted,non-word,Sure seen,1.0,seen,unwitituted,2206.0,7.698936199813447,50,difficult to read,04-04-2019 20:30
462,1,6,True,Non-designer,1,recognition,11,sansforgetica,mutgresy,non-word,Probably not seen,1.0,not seen,murching,3381.0,8.125926802707887,50,difficult to read,04-04-2019 20:30
463,1,6,True,Non-designer,1,recognition,12,sansforgetica,murder,word,Sure seen,1.0,seen,murder,1723.0,7.45182223652793,50,difficult to read,04-04-2019 20:30
464,1,6,True,Non-designer,1,recognition,13,sansforgetica,stand,word,Probably not seen,1.0,not seen,stage,2659.0,7.885705391243019,50,difficult to read,04-04-2019 20:30
465,1,6,True,Non-designer,1,recognition,14,sansforgetica,travel,word,Sure seen,1.0,seen,travel,2679.0,7.893198869544609,50,difficult to read,04-04-2019 20:30
466,1,6,True,Non-designer,1,recognition,15,sansforgetica,legetation,non-word,Sure seen,1.0,seen,legetation,1736.0,7.459338895220297,50,difficult to read,04-04-2019 20:30
467,1,6,True,Non-designer,1,recognition,16,sansforgetica,parturceful,non-word,Sure seen,1.0,seen,parturceful,1966.0,7.583756300707113,50,difficult to read,04-04-2019 20:30
468,1,6,True,Non-designer,2,lexical,1,arial,forget,word,Sure word,1.0,,,3402.0,8.132118772955806,50,very easy to read,04-04-2019 20:30
469,1,6,True,Non-designer,2,lexical,2,arial,stort,non-word,Sure non-word,1.0,,,2401.0,7.783640596221253,50,very easy to read,04-04-2019 20:30
470,1,6,True,Non-designer,2,lexical,3,arial,weather,word,Sure word,1.0,,,1728.0,7.454719949364001,50,very easy to read,04-04-2019 20:30
471,1,6,True,Non-designer,2,lexical,4,arial,foldness,non-word,Probably non-word,1.0,,,2664.0,7.88758403166028,50,very easy to read,04-04-2019 20:30
472,1,6,True,Non-designer,2,lexical,5,arial,married,word,Sure word,1.0,,,1698.0,7.437206366871292,50,very easy to read,04-04-2019 20:30
473,1,6,True,Non-designer,2,lexical,6,arial,beliany,non-word,Sure non-word,1.0,,,2657.0,7.884952945759814,50,very easy to read,04-04-2019 20:30
474,1,6,True,Non-designer,2,lexical,7,arial,familiar,word,Sure word,1.0,,,1605.0,7.380879035564116,50,very easy to read,04-04-2019 20:30
475,1,6,True,Non-designer,2,lexical,8,arial,staff,word,Sure word,1.0,,,1436.0,7.2696167496081685,50,very easy to read,04-04-2019 20:30
476,1,6,True,Non-designer,2,lexical,9,arial,adjuntives,non-word,Probably non-word,1.0,,,2105.0,7.652070746116482,50,very easy to read,04-04-2019 20:30
477,1,6,True,Non-designer,2,lexical,10,arial,hospital,word,Sure word,1.0,,,1461.0,7.2868764117507006,50,very easy to read,04-04-2019 20:30
478,1,6,True,Non-designer,2,lexical,11,arial,absolutely,word,Sure word,1.0,,,1407.0,7.249215057114389,50,very easy to read,04-04-2019 20:30
479,1,6,True,Non-designer,2,lexical,12,arial,distructs,non-word,Probably non-word,1.0,,,2640.0,7.878534196140362,50,very easy to read,04-04-2019 20:30
480,1,6,True,Non-designer,2,lexical,13,arial,nobody,word,Sure word,1.0,,,1540.0,7.339537695407674,50,very easy to read,04-04-2019 20:30
481,1,6,True,Non-designer,2,lexical,14,arial,coupid,non-word,Probably word,0.0,,,3791.0,8.240385115516334,50,very easy to read,04-04-2019 20:30
482,1,6,True,Non-designer,2,lexical,15,arial,crowd,word,Sure word,1.0,,,2964.0,7.994294986415977,50,very easy to read,04-04-2019 20:30
483,1,6,True,Non-designer,2,lexical,16,arial,experprower,non-word,Sure non-word,1.0,,,2758.0,7.922261058353247,50,very easy to read,04-04-2019 20:30
484,1,6,True,Non-designer,2,lexical,17,arial,telling,word,Sure word,1.0,,,1471.0,7.293697720601437,50,very easy to read,04-04-2019 20:30
485,1,6,True,Non-designer,2,lexical,18,arial,invironable,non-word,Probably non-word,1.0,,,2096.0,7.647786045440933,50,very easy to read,04-04-2019 20:30
486,1,6,True,Non-designer,2,lexical,19,arial,adolormated,non-word,Probably non-word,1.0,,,2552.0,7.8446326444646814,50,very easy to read,04-04-2019 20:30
487,1,6,True,Non-designer,2,lexical,20,arial,exprinuous,non-word,Sure non-word,1.0,,,2434.0,7.797291273547473,50,very easy to read,04-04-2019 20:30
488,1,6,True,Non-designer,2,recognition,1,arial,forget,word,Sure seen,1.0,seen,forget,1934.0,7.5673456760132405,50,very easy to read,04-04-2019 20:30
489,1,6,True,Non-designer,2,recognition,2,arial,crowd,word,Sure seen,1.0,seen,crowd,1476.0,7.297091005160418,50,very easy to read,04-04-2019 20:30
490,1,6,True,Non-designer,2,recognition,3,arial,folend,non-word,Probably seen,0.0,not seen,foldness,2540.0,7.8399193600125825,50,very easy to read,04-04-2019 20:30
491,1,6,True,Non-designer,2,recognition,4,arial,accepted,word,Sure not seen,1.0,not seen,absolutely,2176.0,7.685243607975832,50,very easy to read,04-04-2019 20:30
492,1,6,True,Non-designer,2,recognition,5,arial,nobody,word,Sure seen,1.0,seen,nobody,1777.0,7.482681828154651,50,very easy to read,04-04-2019 20:30
493,1,6,True,Non-designer,2,recognition,6,arial,adjuntives,non-word,Sure seen,1.0,seen,adjuntives,1794.0,7.4922030426187405,50,very easy to read,04-04-2019 20:30
494,1,6,True,Non-designer,2,recognition,7,arial,extremics,non-word,Probably not seen,1.0,not seen,exprinuous,2457.0,7.806696372521179,50,very easy to read,04-04-2019 20:30
495,1,6,True,Non-designer,2,recognition,8,arial,telling,word,Sure seen,1.0,seen,telling,1641.0,7.40306109109009,50,very easy to read,04-04-2019 20:30
496,1,6,True,Non-designer,2,recognition,9,arial,families,word,Probably seen,0.0,not seen,familiar,2625.0,7.872836175025724,50,very easy to read,04-04-2019 20:30
497,1,6,True,Non-designer,2,recognition,10,arial,stort,non-word,Probably not seen,0.0,seen,stort,2722.0,7.909122183211411,50,very easy to read,04-04-2019 20:30
498,1,6,True,Non-designer,2,recognition,11,arial,invironable,non-word,Sure seen,1.0,seen,invironable,2099.0,7.649216319820633,50,very easy to read,04-04-2019 20:30
499,1,6,True,Non-designer,2,recognition,12,arial,coupid,non-word,Sure seen,1.0,seen,coupid,1960.0,7.580699752224562,50,very easy to read,04-04-2019 20:30
500,1,6,True,Non-designer,2,recognition,13,arial,hotel,word,Sure not seen,1.0,not seen,hospital,1948.0,7.57455848420248,50,very easy to read,04-04-2019 20:30
501,1,6,True,Non-designer,2,recognition,14,arial,beliets,non-word,Probably not seen,1.0,not seen,beliany,1843.0,7.519149957669822,50,very easy to read,04-04-2019 20:30
502,1,6,True,Non-designer,2,recognition,15,arial,advanth,non-word,Sure not seen,1.0,not seen,adolormated,1837.0,7.515889085215125,50,very easy to read,04-04-2019 20:30
503,1,6,True,Non-designer,2,recognition,16,arial,massive,word,Probably not seen,1.0,not seen,married,2007.0,7.604396348796338,50,very easy to read,04-04-2019 20:30
504,1,7,True,Other designer,1,lexical,1,sansforgetica,store,word,Sure word,1.0,,,2742.0,7.91644286012226,25,ok,04-04-2019 19:51
505,1,7,True,Other designer,1,lexical,2,sansforgetica,grawn,non-word,Sure non-word,1.0,,,2824.0,7.945909598613132,25,ok,04-04-2019 19:51
506,1,7,True,Other designer,1,lexical,3,sansforgetica,morking,non-word,Sure non-word,1.0,,,2861.0,7.95892649305011,25,ok,04-04-2019 19:51
507,1,7,True,Other designer,1,lexical,4,sansforgetica,togethes,non-word,Sure non-word,1.0,,,2603.0,7.864419904994565,25,ok,04-04-2019 19:51
508,1,7,True,Other designer,1,lexical,5,sansforgetica,single,word,Sure word,1.0,,,1571.0,7.359467638255621,25,ok,04-04-2019 19:51
509,1,7,True,Other designer,1,lexical,6,sansforgetica,busitown,non-word,Sure non-word,1.0,,,2961.0,7.993282328101591,25,ok,04-04-2019 19:51
510,1,7,True,Other designer,1,lexical,7,sansforgetica,share,word,Sure word,1.0,,,1659.0,7.413970290190443,25,ok,04-04-2019 19:51
511,1,7,True,Other designer,1,lexical,8,sansforgetica,lovessions,non-word,Sure non-word,1.0,,,3020.0,8.013012110368916,25,ok,04-04-2019 19:51
512,1,7,True,Other designer,1,lexical,9,sansforgetica,ancient,word,Sure word,1.0,,,1534.0,7.335633981927201,25,ok,04-04-2019 19:51
513,1,7,True,Other designer,1,lexical,10,sansforgetica,valowing,non-word,Probably word,0.0,,,2610.0,7.867105500316738,25,ok,04-04-2019 19:51
514,1,7,True,Other designer,1,lexical,11,sansforgetica,requinest,non-word,Probably word,0.0,,,3795.0,8.24143968982973,25,ok,04-04-2019 19:51
515,1,7,True,Other designer,1,lexical,12,sansforgetica,wants,word,Sure word,1.0,,,1452.0,7.280697195384741,25,ok,04-04-2019 19:51
516,1,7,True,Other designer,1,lexical,13,sansforgetica,difference,word,Sure word,1.0,,,1254.0,7.134093721192866,25,ok,04-04-2019 19:51
517,1,7,True,Other designer,1,lexical,14,sansforgetica,millars,non-word,Sure non-word,1.0,,,2633.0,7.87587915949631,25,ok,04-04-2019 19:51
518,1,7,True,Other designer,1,lexical,15,sansforgetica,master,word,Sure word,1.0,,,1815.0,7.503840746698952,25,ok,04-04-2019 19:51
519,1,7,True,Other designer,1,lexical,16,sansforgetica,preakfase,non-word,Probably non-word,1.0,,,5574.0,8.625868208041894,25,ok,04-04-2019 19:51
520,1,7,True,Other designer,1,lexical,17,sansforgetica,suggest,word,Sure word,1.0,,,1542.0,7.3408355541232755,25,ok,04-04-2019 19:51
521,1,7,True,Other designer,1,lexical,18,sansforgetica,stock,word,Sure word,1.0,,,1290.0,7.162397497355718,25,ok,04-04-2019 19:51
522,1,7,True,Other designer,1,lexical,19,sansforgetica,disgrestors,non-word,Probably non-word,1.0,,,2828.0,7.947325027016463,25,ok,04-04-2019 19:51
523,1,7,True,Other designer,1,lexical,20,sansforgetica,broken,word,Sure word,1.0,,,1291.0,7.1631723908466425,25,ok,04-04-2019 19:51
524,1,7,True,Other designer,1,recognition,1,sansforgetica,match,word,Sure seen,0.0,not seen,master,2276.0,7.730174795246223,25,ok,04-04-2019 19:51
525,1,7,True,Other designer,1,recognition,2,sansforgetica,single,word,Sure seen,1.0,seen,single,1027.0,6.934397209928558,25,ok,04-04-2019 19:51
526,1,7,True,Other designer,1,recognition,3,sansforgetica,stories,word,Sure seen,0.0,not seen,store,5250.0,8.565983355585669,25,ok,04-04-2019 19:51
527,1,7,True,Other designer,1,recognition,4,sansforgetica,stock,word,Sure seen,1.0,seen,stock,2229.0,7.709308333385869,25,ok,04-04-2019 19:51
528,1,7,True,Other designer,1,recognition,5,sansforgetica,rescributed,non-word,Probably not seen,1.0,not seen,requinest,4744.0,8.464635940677564,25,ok,04-04-2019 19:51
529,1,7,True,Other designer,1,recognition,6,sansforgetica,sharp,word,Probably seen,0.0,not seen,share,3853.0,8.256607344626158,25,ok,04-04-2019 19:51
530,1,7,True,Other designer,1,recognition,7,sansforgetica,broken,word,Probably not seen,0.0,seen,broken,2585.0,7.85748078694253,25,ok,04-04-2019 19:51
531,1,7,True,Other designer,1,recognition,8,sansforgetica,suggest,word,Sure seen,1.0,seen,suggest,1726.0,7.453561871643371,25,ok,04-04-2019 19:51
532,1,7,True,Other designer,1,recognition,9,sansforgetica,waste,word,Sure seen,0.0,not seen,wants,2764.0,7.924434184887559,25,ok,04-04-2019 19:51
533,1,7,True,Other designer,1,recognition,10,sansforgetica,lovessions,non-word,Sure seen,1.0,seen,lovessions,2180.0,7.687080155783135,25,ok,04-04-2019 19:51
534,1,7,True,Other designer,1,recognition,11,sansforgetica,morking,non-word,Sure seen,1.0,seen,morking,1686.0,7.430114138561801,25,ok,04-04-2019 19:51
535,1,7,True,Other designer,1,recognition,12,sansforgetica,minalry,non-word,Sure not seen,1.0,not seen,millars,3638.0,8.199189359078067,25,ok,04-04-2019 19:51
536,1,7,True,Other designer,1,recognition,13,sansforgetica,preance,non-word,Sure not seen,1.0,not seen,preakfase,2025.0,7.613324979540639,25,ok,04-04-2019 19:51
537,1,7,True,Other designer,1,recognition,14,sansforgetica,grawn,non-word,Probably seen,1.0,seen,grawn,2054.0,7.627544390488503,25,ok,04-04-2019 19:51
538,1,7,True,Other designer,1,recognition,15,sansforgetica,varearing,non-word,Probably not seen,1.0,not seen,valowing,4839.0,8.484463366793321,25,ok,04-04-2019 19:51
539,1,7,True,Other designer,1,recognition,16,sansforgetica,togethes,non-word,Sure seen,1.0,seen,togethes,2094.0,7.646831391430483,25,ok,04-04-2019 19:51
540,1,7,True,Other designer,2,lexical,1,arial,chair,word,Sure word,1.0,,,3436.0,8.142063283104148,31,very easy to read,04-04-2019 19:51
541,1,7,True,Other designer,2,lexical,2,arial,complex,word,Sure word,1.0,,,933.0,6.838405200847343,31,very easy to read,04-04-2019 19:51
542,1,7,True,Other designer,2,lexical,3,arial,already,word,Sure word,1.0,,,1491.0,7.307202314764737,31,very easy to read,04-04-2019 19:51
543,1,7,True,Other designer,2,lexical,4,arial,uneard,non-word,Probably non-word,1.0,,,4214.0,8.346167594364134,31,very easy to read,04-04-2019 19:51
544,1,7,True,Other designer,2,lexical,5,arial,assappead,non-word,Sure non-word,1.0,,,3994.0,8.29254851397576,31,very easy to read,04-04-2019 19:51
545,1,7,True,Other designer,2,lexical,6,arial,crepards,non-word,Sure non-word,1.0,,,4398.0,8.388905171114706,31,very easy to read,04-04-2019 19:51
546,1,7,True,Other designer,2,lexical,7,arial,stradfules,non-word,Sure non-word,1.0,,,2275.0,7.729735331385051,31,very easy to read,04-04-2019 19:51
547,1,7,True,Other designer,2,lexical,8,arial,syster,non-word,Probably non-word,1.0,,,2689.0,7.8969246562688635,31,very easy to read,04-04-2019 19:51
548,1,7,True,Other designer,2,lexical,9,arial,police,word,Sure word,1.0,,,1531.0,7.333676395657684,31,very easy to read,04-04-2019 19:51
549,1,7,True,Other designer,2,lexical,10,arial,companies,word,Sure word,1.0,,,1728.0,7.454719949364001,31,very easy to read,04-04-2019 19:51
550,1,7,True,Other designer,2,lexical,11,arial,littor,non-word,Probably non-word,1.0,,,2254.0,7.720461694599723,31,very easy to read,04-04-2019 19:51
551,1,7,True,Other designer,2,lexical,12,arial,condamenced,non-word,Probably non-word,1.0,,,3106.0,8.041091003708633,31,very easy to read,04-04-2019 19:51
552,1,7,True,Other designer,2,lexical,13,arial,possible,word,Sure word,1.0,,,2657.0,7.884952945759814,31,very easy to read,04-04-2019 19:51
553,1,7,True,Other designer,2,lexical,14,arial,spent,word,Sure word,1.0,,,980.0,6.887552571664617,31,very easy to read,04-04-2019 19:51
554,1,7,True,Other designer,2,lexical,15,arial,sugmaling,non-word,Sure non-word,1.0,,,5217.0,8.559677803022392,31,very easy to read,04-04-2019 19:51
555,1,7,True,Other designer,2,lexical,16,arial,diverented,non-word,Probably non-word,1.0,,,5674.0,8.643649615368796,31,very easy to read,04-04-2019 19:51
556,1,7,True,Other designer,2,lexical,17,arial,lowely,non-word,Sure word,0.0,,,2445.0,7.801800401908972,31,very easy to read,04-04-2019 19:51
557,1,7,True,Other designer,2,lexical,18,arial,badly,word,Sure word,1.0,,,1058.0,6.964135612418245,31,very easy to read,04-04-2019 19:51
558,1,7,True,Other designer,2,lexical,19,arial,legal,word,Sure word,1.0,,,843.0,6.736966958001855,31,very easy to read,04-04-2019 19:51
559,1,7,True,Other designer,2,lexical,20,arial,directly,word,Sure word,1.0,,,929.0,6.834108738813838,31,very easy to read,04-04-2019 19:51
560,1,7,True,Other designer,2,recognition,1,arial,luccerent,non-word,Sure not seen,1.0,not seen,lowely,3529.0,8.16876982367527,31,very easy to read,04-04-2019 19:51
561,1,7,True,Other designer,2,recognition,2,arial,possible,word,Probably not seen,0.0,seen,possible,2575.0,7.853604813097838,31,very easy to read,04-04-2019 19:51
562,1,7,True,Other designer,2,recognition,3,arial,syster,non-word,Sure seen,1.0,seen,syster,2263.0,7.724446645633536,31,very easy to read,04-04-2019 19:51
563,1,7,True,Other designer,2,recognition,4,arial,asserworly,non-word,Sure seen,0.0,not seen,assappead,2707.0,7.903596289614301,31,very easy to read,04-04-2019 19:51
564,1,7,True,Other designer,2,recognition,5,arial,divitive,non-word,Sure seen,0.0,not seen,diverented,3159.0,8.058010800802085,31,very easy to read,04-04-2019 19:51
565,1,7,True,Other designer,2,recognition,6,arial,littor,non-word,Probably not seen,0.0,seen,littor,3006.0,8.00836557031292,31,very easy to read,04-04-2019 19:51
566,1,7,True,Other designer,2,recognition,7,arial,sugmaling,non-word,Probably not seen,0.0,seen,sugmaling,3067.0,8.028455164114254,31,very easy to read,04-04-2019 19:51
567,1,7,True,Other designer,2,recognition,8,arial,spirit,word,Sure not seen,1.0,not seen,spent,3776.0,8.236420527265391,31,very easy to read,04-04-2019 19:51
568,1,7,True,Other designer,2,recognition,9,arial,cresser,non-word,Sure not seen,1.0,not seen,crepards,1633.0,7.398174092970465,31,very easy to read,04-04-2019 19:51
569,1,7,True,Other designer,2,recognition,10,arial,badly,word,Sure seen,1.0,seen,badly,1637.0,7.400620577371135,31,very easy to read,04-04-2019 19:51
570,1,7,True,Other designer,2,recognition,11,arial,company,word,Sure seen,0.0,not seen,companies,1004.0,6.911747300251673,31,very easy to read,04-04-2019 19:51
571,1,7,True,Other designer,2,recognition,12,arial,condamenced,non-word,Sure seen,1.0,seen,condamenced,3466.0,8.150756470275551,31,very easy to read,04-04-2019 19:51
572,1,7,True,Other designer,2,recognition,13,arial,already,word,Sure seen,1.0,seen,already,1469.0,7.292337176173878,31,very easy to read,04-04-2019 19:51
573,1,7,True,Other designer,2,recognition,14,arial,director,word,Sure not seen,1.0,not seen,directly,2263.0,7.724446645633536,31,very easy to read,04-04-2019 19:51
574,1,7,True,Other designer,2,recognition,15,arial,length,word,Sure not seen,1.0,not seen,legal,1895.0,7.546974117516527,31,very easy to read,04-04-2019 19:51
575,1,7,True,Other designer,2,recognition,16,arial,complex,word,Sure seen,1.0,seen,complex,2147.0,7.671826797878782,31,very easy to read,04-04-2019 19:51
576,1,8,True,Typographer,1,lexical,1,sansforgetica,offered,word,Sure word,1.0,,,2713.0,7.905810312658932,41,ok,04-04-2019 19:00
577,1,8,True,Typographer,1,lexical,2,sansforgetica,mircract,non-word,Probably non-word,1.0,,,2708.0,7.903965634032166,41,ok,04-04-2019 19:00
578,1,8,True,Typographer,1,lexical,3,sansforgetica,primals,non-word,Probably word,0.0,,,2651.0,7.8826922062890254,41,ok,04-04-2019 19:00
579,1,8,True,Typographer,1,lexical,4,sansforgetica,happose,non-word,Sure non-word,1.0,,,2039.0,7.620214770574456,41,ok,04-04-2019 19:00
580,1,8,True,Typographer,1,lexical,5,sansforgetica,gereed,non-word,Sure non-word,1.0,,,2847.0,7.954021087278037,41,ok,04-04-2019 19:00
581,1,8,True,Typographer,1,lexical,6,sansforgetica,sharp,word,Sure word,1.0,,,1744.0,7.463936604468925,41,ok,04-04-2019 19:00
582,1,8,True,Typographer,1,lexical,7,sansforgetica,ordiever,non-word,Sure non-word,1.0,,,2152.0,7.674152921281675,41,ok,04-04-2019 19:00
583,1,8,True,Typographer,1,lexical,8,sansforgetica,message,word,Sure word,1.0,,,1582.0,7.366445148327599,41,ok,04-04-2019 19:00
584,1,8,True,Typographer,1,lexical,9,sansforgetica,easide,non-word,Sure non-word,1.0,,,3064.0,8.027476530860483,41,ok,04-04-2019 19:00
585,1,8,True,Typographer,1,lexical,10,sansforgetica,memated,non-word,Probably non-word,1.0,,,1862.0,7.529406457837013,41,ok,04-04-2019 19:00
586,1,8,True,Typographer,1,lexical,11,sansforgetica,running,word,Sure word,1.0,,,1431.0,7.266128779556451,41,ok,04-04-2019 19:00
587,1,8,True,Typographer,1,lexical,12,sansforgetica,likelf,non-word,Probably non-word,1.0,,,1661.0,7.415175109613295,41,ok,04-04-2019 19:00
588,1,8,True,Typographer,1,lexical,13,sansforgetica,advice,word,Sure word,1.0,,,1509.0,7.319202458767849,41,ok,04-04-2019 19:00
589,1,8,True,Typographer,1,lexical,14,sansforgetica,college,word,Sure word,1.0,,,1532.0,7.334329350300536,41,ok,04-04-2019 19:00
590,1,8,True,Typographer,1,lexical,15,sansforgetica,exercise,word,Sure word,1.0,,,1456.0,7.2834482287566304,41,ok,04-04-2019 19:00
591,1,8,True,Typographer,1,lexical,16,sansforgetica,minisity,non-word,Sure non-word,1.0,,,1869.0,7.533158807455562,41,ok,04-04-2019 19:00
592,1,8,True,Typographer,1,lexical,17,sansforgetica,gream,non-word,Probably non-word,1.0,,,1801.0,7.496097345175956,41,ok,04-04-2019 19:00
593,1,8,True,Typographer,1,lexical,18,sansforgetica,regular,word,Sure word,1.0,,,1393.0,7.2392149737798075,41,ok,04-04-2019 19:00
594,1,8,True,Typographer,1,lexical,19,sansforgetica,forms,word,Sure word,1.0,,,1538.0,7.338238150065589,41,ok,04-04-2019 19:00
595,1,8,True,Typographer,1,lexical,20,sansforgetica,health,word,Sure word,1.0,,,1298.0,7.168579897264035,41,ok,04-04-2019 19:00
596,1,8,True,Typographer,1,recognition,1,sansforgetica,memated,non-word,Sure seen,1.0,seen,memated,4355.0,8.379079889286603,41,ok,04-04-2019 19:00
597,1,8,True,Typographer,1,recognition,2,sansforgetica,primals,non-word,Sure seen,1.0,seen,primals,1929.0,7.564757012905729,41,ok,04-04-2019 19:00
598,1,8,True,Typographer,1,recognition,3,sansforgetica,minned,non-word,Sure not seen,1.0,not seen,minisity,2022.0,7.611842399580418,41,ok,04-04-2019 19:00
599,1,8,True,Typographer,1,recognition,4,sansforgetica,office,word,Probably seen,0.0,not seen,offered,2957.0,7.991930519852477,41,ok,04-04-2019 19:00
600,1,8,True,Typographer,1,recognition,5,sansforgetica,running,word,Sure seen,1.0,seen,running,1473.0,7.29505641646263,41,ok,04-04-2019 19:00
601,1,8,True,Typographer,1,recognition,6,sansforgetica,gighting,non-word,Sure not seen,1.0,not seen,gereed,1783.0,7.48605261786314,41,ok,04-04-2019 19:00
602,1,8,True,Typographer,1,recognition,7,sansforgetica,likelf,non-word,Sure seen,1.0,seen,likelf,1846.0,7.520776415062798,41,ok,04-04-2019 19:00
603,1,8,True,Typographer,1,recognition,8,sansforgetica,heard,word,Probably not seen,1.0,not seen,health,1961.0,7.581209826196346,41,ok,04-04-2019 19:00
604,1,8,True,Typographer,1,recognition,9,sansforgetica,college,word,Sure seen,1.0,seen,college,1456.0,7.2834482287566304,41,ok,04-04-2019 19:00
605,1,8,True,Typographer,1,recognition,10,sansforgetica,exist,word,Probably not seen,1.0,not seen,exercise,2122.0,7.660114319173927,41,ok,04-04-2019 19:00
606,1,8,True,Typographer,1,recognition,11,sansforgetica,methods,word,Probably not seen,1.0,not seen,message,2581.0,7.855932199718613,41,ok,04-04-2019 19:00
607,1,8,True,Typographer,1,recognition,12,sansforgetica,eassed,non-word,Sure not seen,1.0,not seen,easide,1799.0,7.494986233950533,41,ok,04-04-2019 19:00
608,1,8,True,Typographer,1,recognition,13,sansforgetica,regular,word,Sure seen,1.0,seen,regular,1457.0,7.284134806195206,41,ok,04-04-2019 19:00
609,1,8,True,Typographer,1,recognition,14,sansforgetica,ordiever,non-word,Sure seen,1.0,seen,ordiever,2093.0,7.646353722445999,41,ok,04-04-2019 19:00
610,1,8,True,Typographer,1,recognition,15,sansforgetica,forms,word,Sure seen,1.0,seen,forms,1633.0,7.398174092970465,41,ok,04-04-2019 19:00
611,1,8,True,Typographer,1,recognition,16,sansforgetica,miregiated,non-word,Sure not seen,1.0,not seen,mircract,1616.0,7.38770923908104,41,ok,04-04-2019 19:00
612,1,8,True,Typographer,2,lexical,1,arial,mering,non-word,Sure non-word,1.0,,,4331.0,8.373553741214629,41,very easy to read,04-04-2019 19:00
613,1,8,True,Typographer,2,lexical,2,arial,doweract,non-word,Probably non-word,1.0,,,2001.0,7.601402334583732,41,very easy to read,04-04-2019 19:00
614,1,8,True,Typographer,2,lexical,3,arial,husband,word,Sure word,1.0,,,1337.0,7.1981835771019425,41,very easy to read,04-04-2019 19:00
615,1,8,True,Typographer,2,lexical,4,arial,speech,word,Sure word,1.0,,,1279.0,7.153833801578842,41,very easy to read,04-04-2019 19:00
616,1,8,True,Typographer,2,lexical,5,arial,resightered,non-word,Probably non-word,1.0,,,3246.0,8.085178748074538,41,very easy to read,04-04-2019 19:00
617,1,8,True,Typographer,2,lexical,6,arial,legissaries,non-word,Probably non-word,1.0,,,1991.0,7.596392304064197,41,very easy to read,04-04-2019 19:00
618,1,8,True,Typographer,2,lexical,7,arial,largely,word,Sure word,1.0,,,1370.0,7.22256601882217,41,very easy to read,04-04-2019 19:00
619,1,8,True,Typographer,2,lexical,8,arial,fixed,word,Sure word,1.0,,,1240.0,7.122866658599082,41,very easy to read,04-04-2019 19:00
620,1,8,True,Typographer,2,lexical,9,arial,dindow,non-word,Probably non-word,1.0,,,1546.0,7.343426229147368,41,very easy to read,04-04-2019 19:00
621,1,8,True,Typographer,2,lexical,10,arial,independent,word,Sure word,1.0,,,1321.0,7.186144304522325,41,very easy to read,04-04-2019 19:00
622,1,8,True,Typographer,2,lexical,11,arial,patcher,non-word,Sure word,0.0,,,1598.0,7.37650812632622,41,very easy to read,04-04-2019 19:00
623,1,8,True,Typographer,2,lexical,12,arial,anyway,word,Sure word,1.0,,,1626.0,7.3938782901077555,41,very easy to read,04-04-2019 19:00
624,1,8,True,Typographer,2,lexical,13,arial,wituraman,non-word,Sure non-word,1.0,,,1735.0,7.45876269238096,41,very easy to read,04-04-2019 19:00
625,1,8,True,Typographer,2,lexical,14,arial,drankes,non-word,Sure non-word,1.0,,,1705.0,7.4413203897176174,41,very easy to read,04-04-2019 19:00
626,1,8,True,Typographer,2,lexical,15,arial,court,word,Sure word,1.0,,,1375.0,7.226209010100671,41,very easy to read,04-04-2019 19:00
627,1,8,True,Typographer,2,lexical,16,arial,colonel,word,Sure word,1.0,,,1374.0,7.2254814727822945,41,very easy to read,04-04-2019 19:00
628,1,8,True,Typographer,2,lexical,17,arial,before,word,Sure word,1.0,,,1369.0,7.22183582528845,41,very easy to read,04-04-2019 19:00
629,1,8,True,Typographer,2,lexical,18,arial,prought,non-word,Probably non-word,1.0,,,1677.0,7.424761761823209,41,very easy to read,04-04-2019 19:00
630,1,8,True,Typographer,2,lexical,19,arial,glass,word,Sure word,1.0,,,1651.0,7.409136443920128,41,very easy to read,04-04-2019 19:00
631,1,8,True,Typographer,2,lexical,20,arial,orgument,non-word,Probably non-word,1.0,,,1626.0,7.3938782901077555,41,very easy to read,04-04-2019 19:00
632,1,8,True,Typographer,2,recognition,1,arial,pearmas,non-word,Sure not seen,1.0,not seen,patcher,1940.0,7.570443252057373,41,very easy to read,04-04-2019 19:00
633,1,8,True,Typographer,2,recognition,2,arial,speed,word,Probably seen,0.0,not seen,speech,1983.0,7.592366128519796,41,very easy to read,04-04-2019 19:00
634,1,8,True,Typographer,2,recognition,3,arial,resightered,non-word,Sure seen,1.0,seen,resightered,2010.0,7.6058900010531225,41,very easy to read,04-04-2019 19:00
635,1,8,True,Typographer,2,recognition,4,arial,anywhere,word,Sure not seen,1.0,not seen,anyway,2379.0,7.774435510302958,41,very easy to read,04-04-2019 19:00
636,1,8,True,Typographer,2,recognition,5,arial,independent,word,Probably not seen,0.0,seen,independent,1834.0,7.51425465281641,41,very easy to read,04-04-2019 19:00
637,1,8,True,Typographer,2,recognition,6,arial,glass,word,Sure seen,1.0,seen,glass,1365.0,7.218909707619059,41,very easy to read,04-04-2019 19:00
638,1,8,True,Typographer,2,recognition,7,arial,husband,word,Sure seen,1.0,seen,husband,1295.0,7.166265974133638,41,very easy to read,04-04-2019 19:00
639,1,8,True,Typographer,2,recognition,8,arial,prought,non-word,Sure seen,1.0,seen,prought,1408.0,7.249925536717987,41,very easy to read,04-04-2019 19:00
640,1,8,True,Typographer,2,recognition,9,arial,docionating,non-word,Sure not seen,1.0,not seen,doweract,1685.0,7.429520842786462,41,very easy to read,04-04-2019 19:00
641,1,8,True,Typographer,2,recognition,10,arial,legissaries,non-word,Sure seen,1.0,seen,legissaries,1684.0,7.428927194802272,41,very easy to read,04-04-2019 19:00
642,1,8,True,Typographer,2,recognition,11,arial,began,word,Probably not seen,1.0,not seen,before,2937.0,7.985143931198619,41,very easy to read,04-04-2019 19:00
643,1,8,True,Typographer,2,recognition,12,arial,orgument,non-word,Sure seen,1.0,seen,orgument,1545.0,7.342779189331845,41,very easy to read,04-04-2019 19:00
644,1,8,True,Typographer,2,recognition,13,arial,covered,word,Probably seen,0.0,not seen,court,2775.0,7.928406026180536,41,very easy to read,04-04-2019 19:00
645,1,8,True,Typographer,2,recognition,14,arial,merrowed,non-word,Sure seen,0.0,not seen,mering,2234.0,7.711548979629147,41,very easy to read,04-04-2019 19:00
646,1,8,True,Typographer,2,recognition,15,arial,dreentic,non-word,Sure not seen,1.0,not seen,drankes,1502.0,7.314552832324081,41,very easy to read,04-04-2019 19:00
647,1,8,True,Typographer,2,recognition,16,arial,fixed,word,Sure seen,1.0,seen,fixed,1619.0,7.389563953677635,41,very easy to read,04-04-2019 19:00
648,1,9,True,Typographer,1,lexical,1,sansforgetica,bedroom,word,Sure word,1.0,,,1702.0,7.43955930913332,42,difficult to read,04-04-2019 18:34
649,1,9,True,Typographer,1,lexical,2,sansforgetica,terrible,word,Sure word,1.0,,,1292.0,7.163946684342547,42,difficult to read,04-04-2019 18:34
650,1,9,True,Typographer,1,lexical,3,sansforgetica,physical,word,Sure word,1.0,,,930.0,6.835184586147301,42,difficult to read,04-04-2019 18:34
651,1,9,True,Typographer,1,lexical,4,sansforgetica,soldiers,word,Sure word,1.0,,,1640.0,7.402451520818245,42,difficult to read,04-04-2019 18:34
652,1,9,True,Typographer,1,lexical,5,sansforgetica,otherwise,word,Sure word,1.0,,,1166.0,7.061334366910438,42,difficult to read,04-04-2019 18:34
653,1,9,True,Typographer,1,lexical,6,sansforgetica,starge,non-word,Sure non-word,1.0,,,2294.0,7.7380522976893165,42,difficult to read,04-04-2019 18:34
654,1,9,True,Typographer,1,lexical,7,sansforgetica,headent,non-word,Sure non-word,1.0,,,2688.0,7.89655270164304,42,difficult to read,04-04-2019 18:34
655,1,9,True,Typographer,1,lexical,8,sansforgetica,heavily,word,Sure word,1.0,,,1788.0,7.488852955733459,42,difficult to read,04-04-2019 18:34
