,StudyID,ParticipantID,Fluent,Training,TestID,Type,TrialID,Font,Sample,Category,Response,Correct,Seen,Foil,RT,RTnorm,JoM,JoL,Date
0,2,0,True,Non-designer,1,lexical,1,arial,experaties,non-word,Probably non-word,1.0,,,2267.0,7.726212650507529,70,easy to read,30-05-2019 14:46
1,2,0,True,Non-designer,1,lexical,2,arial,anyway,word,Sure word,1.0,,,1515.0,7.323170717943469,70,easy to read,30-05-2019 14:46
2,2,0,True,Non-designer,1,lexical,3,arial,glasses,word,Sure word,1.0,,,1038.0,6.945051063725834,70,easy to read,30-05-2019 14:46
3,2,0,True,Non-designer,1,lexical,4,arial,formal,word,Sure word,1.0,,,922.0,6.826545223556594,70,easy to read,30-05-2019 14:46
4,2,0,True,Non-designer,1,lexical,5,arial,suronder,non-word,Sure non-word,1.0,,,2248.0,7.717796211013582,70,easy to read,30-05-2019 14:46
5,2,0,True,Non-designer,1,lexical,6,arial,impeady,non-word,Probably non-word,1.0,,,1649.0,7.407924322559599,70,easy to read,30-05-2019 14:46
6,2,0,True,Non-designer,1,lexical,7,arial,natume,non-word,Probably non-word,1.0,,,2020.0,7.61085279039525,70,easy to read,30-05-2019 14:46
7,2,0,True,Non-designer,1,lexical,8,arial,succerdly,non-word,Sure non-word,1.0,,,1531.0,7.333676395657684,70,easy to read,30-05-2019 14:46
8,2,0,True,Non-designer,1,lexical,9,arial,romoting,non-word,Probably word,0.0,,,3768.0,8.234299635696253,70,easy to read,30-05-2019 14:46
9,2,0,True,Non-designer,1,lexical,10,arial,misher,non-word,Probably non-word,1.0,,,1846.0,7.520776415062797,70,easy to read,30-05-2019 14:46
10,2,0,True,Non-designer,1,lexical,11,arial,white,word,Sure word,1.0,,,1402.0,7.2456550675945355,70,easy to read,30-05-2019 14:46
11,2,0,True,Non-designer,1,lexical,12,arial,pearmas,non-word,Sure non-word,1.0,,,2748.0,7.91862865334224,70,easy to read,30-05-2019 14:46
12,2,0,True,Non-designer,1,lexical,13,arial,origived,non-word,Probably non-word,1.0,,,3022.0,8.013674142832684,70,easy to read,30-05-2019 14:46
13,2,0,True,Non-designer,1,lexical,14,arial,coupid,non-word,Probably non-word,1.0,,,2120.0,7.659171367666058,70,easy to read,30-05-2019 14:46
14,2,0,True,Non-designer,1,lexical,15,arial,drive,word,Sure word,1.0,,,1430.0,7.265429723253953,70,easy to read,30-05-2019 14:46
15,2,0,True,Non-designer,1,lexical,16,arial,modern,word,Sure word,1.0,,,976.0,6.883462586413092,70,easy to read,30-05-2019 14:46
16,2,0,True,Non-designer,1,lexical,17,arial,given,word,Sure word,1.0,,,1052.0,6.9584483932976555,70,easy to read,30-05-2019 14:46
17,2,0,True,Non-designer,1,lexical,18,arial,activities,word,Sure word,1.0,,,943.0,6.849066282633458,70,easy to read,30-05-2019 14:46
18,2,0,True,Non-designer,1,lexical,19,arial,looks,word,Sure word,1.0,,,951.0,6.85751406254539,70,easy to read,30-05-2019 14:46
19,2,0,True,Non-designer,1,lexical,20,arial,build,word,Sure word,1.0,,,860.0,6.756932389247553,70,easy to read,30-05-2019 14:46
20,2,0,True,Non-designer,1,recognition,1,sansforgetica,succerdly,non-word,Sure seen,1.0,seen,succerdly,4500.0,8.411832675758411,70,easy to read,30-05-2019 14:46
21,2,0,True,Non-designer,1,recognition,2,sansforgetica,penerer,non-word,Sure not seen,1.0,not seen,pearmas,3272.0,8.093156697722637,70,easy to read,30-05-2019 14:46
22,2,0,True,Non-designer,1,recognition,3,sansforgetica,glasses,word,Sure seen,1.0,seen,glasses,1507.0,7.317876198626496,70,easy to read,30-05-2019 14:46
23,2,0,True,Non-designer,1,recognition,4,sansforgetica,neacten,non-word,Probably not seen,1.0,not seen,natume,2291.0,7.736743682453495,70,easy to read,30-05-2019 14:46
24,2,0,True,Non-designer,1,recognition,5,sansforgetica,gives,word,Sure not seen,1.0,not seen,given,4148.0,8.330381569349418,70,easy to read,30-05-2019 14:46
25,2,0,True,Non-designer,1,recognition,6,sansforgetica,build,word,Sure seen,1.0,seen,build,1424.0,7.261225091971921,70,easy to read,30-05-2019 14:46
26,2,0,True,Non-designer,1,recognition,7,sansforgetica,looks,word,Sure seen,1.0,seen,looks,1243.0,7.1252830915107115,70,easy to read,30-05-2019 14:46
27,2,0,True,Non-designer,1,recognition,8,sansforgetica,orindary,non-word,Sure not seen,1.0,not seen,origived,2693.0,7.898411092811599,70,easy to read,30-05-2019 14:46
28,2,0,True,Non-designer,1,recognition,9,sansforgetica,experession,non-word,Probably not seen,1.0,not seen,experaties,1710.0,7.444248649496705,70,easy to read,30-05-2019 14:46
29,2,0,True,Non-designer,1,recognition,10,sansforgetica,driving,word,Probably not seen,1.0,not seen,drive,1742.0,7.462789157412448,70,easy to read,30-05-2019 14:46
30,2,0,True,Non-designer,1,recognition,11,sansforgetica,romoting,non-word,Probably seen,1.0,seen,romoting,2815.0,7.942717540573791,70,easy to read,30-05-2019 14:46
31,2,0,True,Non-designer,1,recognition,12,sansforgetica,anywhere,word,Sure not seen,1.0,not seen,anyway,2190.0,7.691656822810547,70,easy to read,30-05-2019 14:46
32,2,0,True,Non-designer,1,recognition,13,sansforgetica,suronder,non-word,Sure seen,1.0,seen,suronder,1786.0,7.487733761436444,70,easy to read,30-05-2019 14:46
33,2,0,True,Non-designer,1,recognition,14,sansforgetica,formal,word,Sure seen,1.0,seen,formal,1270.0,7.146772179452637,70,easy to read,30-05-2019 14:46
34,2,0,True,Non-designer,1,recognition,15,sansforgetica,coupid,non-word,Sure seen,1.0,seen,coupid,1306.0,7.174724309836376,70,easy to read,30-05-2019 14:46
35,2,0,True,Non-designer,1,recognition,16,sansforgetica,moment,word,Probably not seen,1.0,not seen,modern,1991.0,7.596392304064196,70,easy to read,30-05-2019 14:46
36,2,0,True,Non-designer,2,lexical,1,sansforgetica,calculgical,non-word,Probably non-word,1.0,,,4929.0,8.502891406705377,55,difficult to read,30-05-2019 14:46
37,2,0,True,Non-designer,2,lexical,2,sansforgetica,computer,word,Sure word,1.0,,,1345.0,7.20414929203594,55,difficult to read,30-05-2019 14:46
38,2,0,True,Non-designer,2,lexical,3,sansforgetica,government,word,Sure word,1.0,,,1602.0,7.379008127628304,55,difficult to read,30-05-2019 14:46
39,2,0,True,Non-designer,2,lexical,4,sansforgetica,character,word,Sure word,1.0,,,1872.0,7.534762657037537,55,difficult to read,30-05-2019 14:46
40,2,0,True,Non-designer,2,lexical,5,sansforgetica,pariods,non-word,Probably non-word,1.0,,,2548.0,7.843064016692054,55,difficult to read,30-05-2019 14:46
41,2,0,True,Non-designer,2,lexical,6,sansforgetica,foldness,non-word,Probably non-word,1.0,,,1832.0,7.513163545234075,55,difficult to read,30-05-2019 14:46
42,2,0,True,Non-designer,2,lexical,7,sansforgetica,discussed,word,Sure word,1.0,,,1980.0,7.590852123688581,55,difficult to read,30-05-2019 14:46
43,2,0,True,Non-designer,2,lexical,8,sansforgetica,prohialized,non-word,Probably non-word,1.0,,,4270.0,8.35936910622267,55,difficult to read,30-05-2019 14:46
44,2,0,True,Non-designer,2,lexical,9,sansforgetica,murder,word,Sure word,1.0,,,1518.0,7.325148957955575,55,difficult to read,30-05-2019 14:46
45,2,0,True,Non-designer,2,lexical,10,sansforgetica,thank,word,Sure word,1.0,,,1128.0,7.028201432058005,55,difficult to read,30-05-2019 14:46
46,2,0,True,Non-designer,2,lexical,11,sansforgetica,mesters,non-word,Probably word,0.0,,,4294.0,8.364973978438726,55,difficult to read,30-05-2019 14:46
47,2,0,True,Non-designer,2,lexical,12,sansforgetica,inderected,non-word,Probably non-word,1.0,,,3615.0,8.192847134592865,55,difficult to read,30-05-2019 14:46
48,2,0,True,Non-designer,2,lexical,13,sansforgetica,freedom,word,Sure word,1.0,,,1632.0,7.397561535524052,55,difficult to read,30-05-2019 14:46
49,2,0,True,Non-designer,2,lexical,14,sansforgetica,talked,word,Sure word,1.0,,,890.0,6.7912214627261855,55,difficult to read,30-05-2019 14:46
50,2,0,True,Non-designer,2,lexical,15,sansforgetica,straight,word,Sure word,1.0,,,1841.0,7.518064181233078,55,difficult to read,30-05-2019 14:46
51,2,0,True,Non-designer,2,lexical,16,sansforgetica,walked,word,Sure word,1.0,,,1571.0,7.359467638255621,55,difficult to read,30-05-2019 14:46
52,2,0,True,Non-designer,2,lexical,17,sansforgetica,vally,non-word,Probably non-word,1.0,,,2391.0,7.779466967458324,55,difficult to read,30-05-2019 14:46
53,2,0,True,Non-designer,2,lexical,18,sansforgetica,verving,non-word,Probably word,0.0,,,2020.0,7.61085279039525,55,difficult to read,30-05-2019 14:46
54,2,0,True,Non-designer,2,lexical,19,sansforgetica,litached,non-word,Sure non-word,1.0,,,3915.0,8.272570608424903,55,difficult to read,30-05-2019 14:46
55,2,0,True,Non-designer,2,lexical,20,sansforgetica,motter,non-word,Probably non-word,1.0,,,3784.0,8.238536930171769,55,difficult to read,30-05-2019 14:46
56,2,0,True,Non-designer,2,recognition,1,arial,calculgical,non-word,Probably seen,1.0,seen,calculgical,3544.0,8.173011311724972,55,difficult to read,30-05-2019 14:46
57,2,0,True,Non-designer,2,recognition,2,arial,victurs,non-word,Sure not seen,1.0,not seen,verving,3073.0,8.030409562130485,55,difficult to read,30-05-2019 14:46
58,2,0,True,Non-designer,2,recognition,3,arial,pariods,non-word,Sure seen,1.0,seen,pariods,1715.0,7.44716835960004,55,difficult to read,30-05-2019 14:46
59,2,0,True,Non-designer,2,recognition,4,arial,liternment,non-word,Probably seen,0.0,not seen,litached,1888.0,7.543273346705446,55,difficult to read,30-05-2019 14:46
60,2,0,True,Non-designer,2,recognition,5,arial,straight,word,Sure seen,1.0,seen,straight,1557.0,7.350516171833998,55,difficult to read,30-05-2019 14:46
61,2,0,True,Non-designer,2,recognition,6,arial,vally,non-word,Sure seen,1.0,seen,vally,1222.0,7.108244139731541,55,difficult to read,30-05-2019 14:46
62,2,0,True,Non-designer,2,recognition,7,arial,discussed,word,Sure seen,1.0,seen,discussed,929.0,6.834108738813838,55,difficult to read,30-05-2019 14:46
63,2,0,True,Non-designer,2,recognition,8,arial,freedom,word,Sure seen,1.0,seen,freedom,904.0,6.806829360392176,55,difficult to read,30-05-2019 14:46
64,2,0,True,Non-designer,2,recognition,9,arial,taste,word,Sure not seen,1.0,not seen,talked,1702.0,7.43955930913332,55,difficult to read,30-05-2019 14:46
65,2,0,True,Non-designer,2,recognition,10,arial,theatre,word,Sure not seen,1.0,not seen,thank,945.0,6.851184927493743,55,difficult to read,30-05-2019 14:46
66,2,0,True,Non-designer,2,recognition,11,arial,metween,non-word,Probably not seen,1.0,not seen,mesters,2229.0,7.709308333385869,55,difficult to read,30-05-2019 14:46
67,2,0,True,Non-designer,2,recognition,12,arial,promatic,non-word,Probably seen,0.0,not seen,prohialized,2816.0,7.943072717277933,55,difficult to read,30-05-2019 14:46
68,2,0,True,Non-designer,2,recognition,13,arial,gradually,word,Probably not seen,1.0,not seen,government,2560.0,7.847762537473608,55,difficult to read,30-05-2019 14:46
69,2,0,True,Non-designer,2,recognition,14,arial,murder,word,Sure seen,1.0,seen,murder,1200.0,7.090076835776092,55,difficult to read,30-05-2019 14:46
70,2,0,True,Non-designer,2,recognition,15,arial,foldness,non-word,Sure seen,1.0,seen,foldness,1284.0,7.157735484249907,55,difficult to read,30-05-2019 14:46
71,2,0,True,Non-designer,2,recognition,16,arial,concern,word,Probably seen,0.0,not seen,computer,1718.0,7.4489161025442,55,difficult to read,30-05-2019 14:46
72,2,1,True,Letter designer,1,lexical,1,arial,considere,non-word,Probably non-word,1.0,,,10870.0,9.293761980115255,80,very easy to read,30-05-2019 13:02
73,2,1,True,Letter designer,1,lexical,2,arial,today,word,Sure word,1.0,,,1975.0,7.5883236773352225,80,very easy to read,30-05-2019 13:02
74,2,1,True,Letter designer,1,lexical,3,arial,minglem,non-word,Probably word,0.0,,,4672.0,8.449342524508063,80,very easy to read,30-05-2019 13:02
75,2,1,True,Letter designer,1,lexical,4,arial,blace,non-word,Probably word,0.0,,,2533.0,7.837159650001675,80,very easy to read,30-05-2019 13:02
76,2,1,True,Letter designer,1,lexical,5,arial,anyone,word,Sure word,1.0,,,1931.0,7.565793282428515,80,very easy to read,30-05-2019 13:02
77,2,1,True,Letter designer,1,lexical,6,arial,wesisty,non-word,Probably word,0.0,,,3044.0,8.020927718981577,80,very easy to read,30-05-2019 13:02
78,2,1,True,Letter designer,1,lexical,7,arial,exisonent,non-word,Sure non-word,1.0,,,2429.0,7.795234929002173,80,very easy to read,30-05-2019 13:02
79,2,1,True,Letter designer,1,lexical,8,arial,hoped,word,Sure word,1.0,,,2819.0,7.9441374911141125,80,very easy to read,30-05-2019 13:02
80,2,1,True,Letter designer,1,lexical,9,arial,papers,word,Sure word,1.0,,,1421.0,7.259116128097101,80,very easy to read,30-05-2019 13:02
81,2,1,True,Letter designer,1,lexical,10,arial,morking,non-word,Probably non-word,1.0,,,2604.0,7.86480400332846,80,very easy to read,30-05-2019 13:02
82,2,1,True,Letter designer,1,lexical,11,arial,british,word,Sure word,1.0,,,1735.0,7.45876269238096,80,very easy to read,30-05-2019 13:02
83,2,1,True,Letter designer,1,lexical,12,arial,order,word,Sure word,1.0,,,1602.0,7.379008127628304,80,very easy to read,30-05-2019 13:02
84,2,1,True,Letter designer,1,lexical,13,arial,achieved,word,Sure word,1.0,,,1534.0,7.335633981927201,80,very easy to read,30-05-2019 13:02
85,2,1,True,Letter designer,1,lexical,14,arial,heaticipary,non-word,Probably word,0.0,,,4357.0,8.379539026117442,80,very easy to read,30-05-2019 13:02
86,2,1,True,Letter designer,1,lexical,15,arial,carrying,word,Sure word,1.0,,,1904.0,7.55171221535131,80,very easy to read,30-05-2019 13:02
87,2,1,True,Letter designer,1,lexical,16,arial,hopeasis,non-word,Probably non-word,1.0,,,2274.0,7.729295674310482,80,very easy to read,30-05-2019 13:02
88,2,1,True,Letter designer,1,lexical,17,arial,arrinst,non-word,Sure non-word,1.0,,,4687.0,8.452547997922705,80,very easy to read,30-05-2019 13:02
89,2,1,True,Letter designer,1,lexical,18,arial,leaves,word,Sure word,1.0,,,2078.0,7.639161171659173,80,very easy to read,30-05-2019 13:02
90,2,1,True,Letter designer,1,lexical,19,arial,exampses,non-word,Probably non-word,1.0,,,3545.0,8.173293438966228,80,very easy to read,30-05-2019 13:02
91,2,1,True,Letter designer,1,lexical,20,arial,explained,word,Sure word,1.0,,,1462.0,7.2875606403097235,80,very easy to read,30-05-2019 13:02
92,2,1,True,Letter designer,1,recognition,1,sansforgetica,cases,word,Probably seen,0.0,not seen,carrying,9754.0,9.185432736269998,80,very easy to read,30-05-2019 13:02
93,2,1,True,Letter designer,1,recognition,2,sansforgetica,heaticipary,non-word,Sure seen,1.0,seen,heaticipary,2246.0,7.716906135298388,80,very easy to read,30-05-2019 13:02
94,2,1,True,Letter designer,1,recognition,3,sansforgetica,morricit,non-word,Probably seen,0.0,not seen,morking,5071.0,8.531293315795018,80,very easy to read,30-05-2019 13:02
95,2,1,True,Letter designer,1,recognition,4,sansforgetica,anything,word,Sure not seen,1.0,not seen,anyone,2048.0,7.6246189861593985,80,very easy to read,30-05-2019 13:02
96,2,1,True,Letter designer,1,recognition,5,sansforgetica,blearate,non-word,Sure not seen,1.0,not seen,blace,1188.0,7.080026499922591,80,very easy to read,30-05-2019 13:02
97,2,1,True,Letter designer,1,recognition,6,sansforgetica,today,word,Sure seen,1.0,seen,today,1527.0,7.3310603052186325,80,very easy to read,30-05-2019 13:02
98,2,1,True,Letter designer,1,recognition,7,sansforgetica,ordered,word,Sure seen,0.0,not seen,order,1128.0,7.028201432058005,80,very easy to read,30-05-2019 13:02
99,2,1,True,Letter designer,1,recognition,8,sansforgetica,considere,non-word,Sure seen,1.0,seen,considere,1395.0,7.240649694255466,80,very easy to read,30-05-2019 13:02
100,2,1,True,Letter designer,1,recognition,9,sansforgetica,achieved,word,Sure seen,1.0,seen,achieved,1244.0,7.126087273299125,80,very easy to read,30-05-2019 13:02
101,2,1,True,Letter designer,1,recognition,10,sansforgetica,leaves,word,Sure seen,1.0,seen,leaves,1052.0,6.9584483932976555,80,very easy to read,30-05-2019 13:02
102,2,1,True,Letter designer,1,recognition,11,sansforgetica,broken,word,Sure not seen,1.0,not seen,british,2010.0,7.605890001053122,80,very easy to read,30-05-2019 13:02
103,2,1,True,Letter designer,1,recognition,12,sansforgetica,minglem,non-word,Sure seen,1.0,seen,minglem,3677.0,8.209852481301272,80,very easy to read,30-05-2019 13:02
104,2,1,True,Letter designer,1,recognition,13,sansforgetica,papers,word,Sure seen,1.0,seen,papers,1498.0,7.311886164077165,80,very easy to read,30-05-2019 13:02
105,2,1,True,Letter designer,1,recognition,14,sansforgetica,exampses,non-word,Sure seen,1.0,seen,exampses,1724.0,7.452402451223638,80,very easy to read,30-05-2019 13:02
106,2,1,True,Letter designer,1,recognition,15,sansforgetica,expeantly,non-word,Sure not seen,1.0,not seen,exisonent,1996.0,7.59890045687141,80,very easy to read,30-05-2019 13:02
107,2,1,True,Letter designer,1,recognition,16,sansforgetica,wessing,non-word,Sure not seen,1.0,not seen,wesisty,1441.0,7.273092595999522,80,very easy to read,30-05-2019 13:02
108,2,1,True,Letter designer,2,lexical,1,sansforgetica,courch,non-word,Probably word,0.0,,,14122.0,9.555489144076292,75,difficult to read,30-05-2019 13:02
109,2,1,True,Letter designer,2,lexical,2,sansforgetica,nationia,non-word,Probably non-word,1.0,,,3626.0,8.195885391314796,75,difficult to read,30-05-2019 13:02
110,2,1,True,Letter designer,2,lexical,3,sansforgetica,empreases,non-word,Probably word,0.0,,,6267.0,8.743053050224676,75,difficult to read,30-05-2019 13:02
111,2,1,True,Letter designer,2,lexical,4,sansforgetica,itself,word,Sure word,1.0,,,1481.0,7.300472814267799,75,difficult to read,30-05-2019 13:02
112,2,1,True,Letter designer,2,lexical,5,sansforgetica,called,word,Sure word,1.0,,,1228.0,7.113142108707088,75,difficult to read,30-05-2019 13:02
113,2,1,True,Letter designer,2,lexical,6,sansforgetica,proportion,word,Sure word,1.0,,,1055.0,6.961296045910167,75,difficult to read,30-05-2019 13:02
114,2,1,True,Letter designer,2,lexical,7,sansforgetica,wessing,non-word,Probably word,0.0,,,1936.0,7.568379267836522,75,difficult to read,30-05-2019 13:02
115,2,1,True,Letter designer,2,lexical,8,sansforgetica,hands,word,Sure word,1.0,,,1483.0,7.301822342137932,75,difficult to read,30-05-2019 13:02
116,2,1,True,Letter designer,2,lexical,9,sansforgetica,children,word,Sure word,1.0,,,1982.0,7.591861714889934,75,difficult to read,30-05-2019 13:02
117,2,1,True,Letter designer,2,lexical,10,sansforgetica,workers,word,Sure word,1.0,,,1406.0,7.2485040723706105,75,difficult to read,30-05-2019 13:02
118,2,1,True,Letter designer,2,lexical,11,sansforgetica,peoped,non-word,Probably non-word,1.0,,,2204.0,7.698029170272805,75,difficult to read,30-05-2019 13:02
119,2,1,True,Letter designer,2,lexical,12,sansforgetica,elemselles,non-word,Sure non-word,1.0,,,3498.0,8.159946655578548,75,difficult to read,30-05-2019 13:02
120,2,1,True,Letter designer,2,lexical,13,sansforgetica,national,word,Sure word,1.0,,,2253.0,7.720017940432244,75,difficult to read,30-05-2019 13:02
121,2,1,True,Letter designer,2,lexical,14,sansforgetica,prought,non-word,Probably word,0.0,,,4981.0,8.513385953073284,75,difficult to read,30-05-2019 13:02
122,2,1,True,Letter designer,2,lexical,15,sansforgetica,difficulty,word,Sure word,1.0,,,1254.0,7.134093721192866,75,difficult to read,30-05-2019 13:02
123,2,1,True,Letter designer,2,lexical,16,sansforgetica,develop,word,Sure word,1.0,,,1275.0,7.150701457592526,75,difficult to read,30-05-2019 13:02
124,2,1,True,Letter designer,2,lexical,17,sansforgetica,happered,non-word,Probably non-word,1.0,,,5286.0,8.572817095164234,75,difficult to read,30-05-2019 13:02
125,2,1,True,Letter designer,2,lexical,18,sansforgetica,excensium,non-word,Probably word,0.0,,,3724.0,8.222553638396958,75,difficult to read,30-05-2019 13:02
126,2,1,True,Letter designer,2,lexical,19,sansforgetica,pocket,word,Sure word,1.0,,,1715.0,7.44716835960004,75,difficult to read,30-05-2019 13:02
127,2,1,True,Letter designer,2,lexical,20,sansforgetica,comething,non-word,Probably word,0.0,,,4408.0,8.391176350832751,75,difficult to read,30-05-2019 13:02
128,2,1,True,Letter designer,2,recognition,1,arial,peoply,non-word,Probably not seen,1.0,not seen,peoped,6902.0,8.839566503657949,75,difficult to read,30-05-2019 13:02
129,2,1,True,Letter designer,2,recognition,2,arial,world,word,Sure seen,0.0,not seen,workers,1265.0,7.142827401161621,75,difficult to read,30-05-2019 13:02
130,2,1,True,Letter designer,2,recognition,3,arial,commalists,non-word,Sure not seen,1.0,not seen,comething,1705.0,7.4413203897176174,75,difficult to read,30-05-2019 13:02
131,2,1,True,Letter designer,2,recognition,4,arial,courcish,non-word,Probably seen,0.0,not seen,courch,3456.0,8.147867129923947,75,difficult to read,30-05-2019 13:02
132,2,1,True,Letter designer,2,recognition,5,arial,develop,word,Sure seen,1.0,seen,develop,1434.0,7.2682230211595655,75,difficult to read,30-05-2019 13:02
133,2,1,True,Letter designer,2,recognition,6,arial,elemselles,non-word,Sure seen,1.0,seen,elemselles,1499.0,7.312553498102598,75,difficult to read,30-05-2019 13:02
134,2,1,True,Letter designer,2,recognition,7,arial,empreases,non-word,Probably seen,1.0,seen,empreases,4648.0,8.444192298531748,75,difficult to read,30-05-2019 13:02
135,2,1,True,Letter designer,2,recognition,8,arial,pointed,word,Sure not seen,1.0,not seen,pocket,2687.0,7.8961806086154915,75,difficult to read,30-05-2019 13:02
136,2,1,True,Letter designer,2,recognition,9,arial,proportion,word,Sure seen,1.0,seen,proportion,1272.0,7.148345743900068,75,difficult to read,30-05-2019 13:02
137,2,1,True,Letter designer,2,recognition,10,arial,children,word,Sure seen,1.0,seen,children,926.0,6.8308742346461795,75,difficult to read,30-05-2019 13:02
138,2,1,True,Letter designer,2,recognition,11,arial,wessing,non-word,Sure seen,1.0,seen,wessing,1014.0,6.921658184151129,75,difficult to read,30-05-2019 13:02
139,2,1,True,Letter designer,2,recognition,12,arial,happlemas,non-word,Sure not seen,1.0,not seen,happered,2202.0,7.697121317282625,75,difficult to read,30-05-2019 13:02
140,2,1,True,Letter designer,2,recognition,13,arial,calling,word,Sure not seen,1.0,not seen,called,1877.0,7.537430036586509,75,difficult to read,30-05-2019 13:02
141,2,1,True,Letter designer,2,recognition,14,arial,ideas,word,Sure not seen,1.0,not seen,itself,2711.0,7.905072849498666,75,difficult to read,30-05-2019 13:02
142,2,1,True,Letter designer,2,recognition,15,arial,nationia,non-word,Sure seen,1.0,seen,nationia,1603.0,7.3796321526095525,75,difficult to read,30-05-2019 13:02
143,2,1,True,Letter designer,2,recognition,16,arial,difficulty,word,Sure seen,1.0,seen,difficulty,969.0,6.876264611890766,75,difficult to read,30-05-2019 13:02
144,2,2,True,Graphic designer,1,lexical,1,arial,dinded,non-word,Probably non-word,1.0,,,6199.0,8.73214326770192,67,very easy to read,30-05-2019 12:41
145,2,2,True,Graphic designer,1,lexical,2,arial,previtment,non-word,Probably non-word,1.0,,,3714.0,8.219864741912652,67,very easy to read,30-05-2019 12:41
146,2,2,True,Graphic designer,1,lexical,3,arial,martain,non-word,Sure word,0.0,,,2914.0,7.97728198675515,67,very easy to read,30-05-2019 12:41
147,2,2,True,Graphic designer,1,lexical,4,arial,economy,word,Sure word,1.0,,,1532.0,7.3343293503005365,67,very easy to read,30-05-2019 12:41
148,2,2,True,Graphic designer,1,lexical,5,arial,modern,word,Sure word,1.0,,,1145.0,7.0431599159883405,67,very easy to read,30-05-2019 12:41
149,2,2,True,Graphic designer,1,lexical,6,arial,dreentic,non-word,Sure non-word,1.0,,,3776.0,8.236420527265391,67,very easy to read,30-05-2019 12:41
150,2,2,True,Graphic designer,1,lexical,7,arial,rooms,word,Sure word,1.0,,,2208.0,7.699842407396986,67,very easy to read,30-05-2019 12:41
151,2,2,True,Graphic designer,1,lexical,8,arial,record,word,Sure word,1.0,,,1932.0,7.566311014772463,67,very easy to read,30-05-2019 12:41
152,2,2,True,Graphic designer,1,lexical,9,arial,damage,word,Sure word,1.0,,,1308.0,7.176254532017144,67,very easy to read,30-05-2019 12:41
153,2,2,True,Graphic designer,1,lexical,10,arial,hopeasis,non-word,Sure non-word,1.0,,,2753.0,7.920446505142607,67,very easy to read,30-05-2019 12:41
154,2,2,True,Graphic designer,1,lexical,11,arial,occognality,non-word,Probably non-word,1.0,,,2518.0,7.831220214604293,67,very easy to read,30-05-2019 12:41
155,2,2,True,Graphic designer,1,lexical,12,arial,anstons,non-word,Probably non-word,1.0,,,3155.0,8.056743774975313,67,very easy to read,30-05-2019 12:41
156,2,2,True,Graphic designer,1,lexical,13,arial,contact,word,Sure word,1.0,,,1414.0,7.254177846456518,67,very easy to read,30-05-2019 12:41
157,2,2,True,Graphic designer,1,lexical,14,arial,uncessified,non-word,Sure non-word,1.0,,,5900.0,8.68270762989381,67,very easy to read,30-05-2019 12:41
158,2,2,True,Graphic designer,1,lexical,15,arial,takes,word,Sure word,1.0,,,1557.0,7.350516171833998,67,very easy to read,30-05-2019 12:41
159,2,2,True,Graphic designer,1,lexical,16,arial,trying,word,Sure word,1.0,,,1469.0,7.292337176173877,67,very easy to read,30-05-2019 12:41
160,2,2,True,Graphic designer,1,lexical,17,arial,morning,word,Sure word,1.0,,,1558.0,7.351158226430694,67,very easy to read,30-05-2019 12:41
161,2,2,True,Graphic designer,1,lexical,18,arial,advice,word,Sure word,1.0,,,1024.0,6.931471805599453,67,very easy to read,30-05-2019 12:41
162,2,2,True,Graphic designer,1,lexical,19,arial,alont,non-word,Sure non-word,1.0,,,2096.0,7.647786045440933,67,very easy to read,30-05-2019 12:41
163,2,2,True,Graphic designer,1,lexical,20,arial,immediative,non-word,Sure word,0.0,,,3053.0,8.023879992734878,67,very easy to read,30-05-2019 12:41
164,2,2,True,Graphic designer,1,recognition,1,sansforgetica,anstons,non-word,Sure seen,1.0,seen,anstons,9629.0,9.172534657240284,67,very easy to read,30-05-2019 12:41
165,2,2,True,Graphic designer,1,recognition,2,sansforgetica,dreentic,non-word,Sure seen,1.0,seen,dreentic,6968.0,8.849083518532339,67,very easy to read,30-05-2019 12:41
166,2,2,True,Graphic designer,1,recognition,3,sansforgetica,occumeted,non-word,Probably not seen,1.0,not seen,occognality,8524.0,9.050640993218508,67,very easy to read,30-05-2019 12:41
167,2,2,True,Graphic designer,1,recognition,4,sansforgetica,mostly,word,Probably not seen,1.0,not seen,morning,3896.0,8.267705664762426,67,very easy to read,30-05-2019 12:41
168,2,2,True,Graphic designer,1,recognition,5,sansforgetica,martain,non-word,Sure seen,1.0,seen,martain,1735.0,7.45876269238096,67,very easy to read,30-05-2019 12:41
169,2,2,True,Graphic designer,1,recognition,6,sansforgetica,advice,word,Sure seen,1.0,seen,advice,1431.0,7.266128779556451,67,very easy to read,30-05-2019 12:41
170,2,2,True,Graphic designer,1,recognition,7,sansforgetica,modern,word,Sure seen,1.0,seen,modern,1142.0,7.040536390215956,67,very easy to read,30-05-2019 12:41
171,2,2,True,Graphic designer,1,recognition,8,sansforgetica,economy,word,Sure seen,1.0,seen,economy,3354.0,8.117908942383155,67,very easy to read,30-05-2019 12:41
172,2,2,True,Graphic designer,1,recognition,9,sansforgetica,taking,word,Probably seen,0.0,not seen,takes,2622.0,7.871692664323645,67,very easy to read,30-05-2019 12:41
173,2,2,True,Graphic designer,1,recognition,10,sansforgetica,content,word,Sure not seen,1.0,not seen,contact,3540.0,8.17188200612782,67,very easy to read,30-05-2019 12:41
174,2,2,True,Graphic designer,1,recognition,11,sansforgetica,hopeasis,non-word,Probably not seen,0.0,seen,hopeasis,3965.0,8.285261134068948,67,very easy to read,30-05-2019 12:41
175,2,2,True,Graphic designer,1,recognition,12,sansforgetica,turned,word,Probably not seen,1.0,not seen,trying,3003.0,8.00736706798333,67,very easy to read,30-05-2019 12:41
176,2,2,True,Graphic designer,1,recognition,13,sansforgetica,alreado,non-word,Sure not seen,1.0,not seen,alont,4205.0,8.344029572407049,67,very easy to read,30-05-2019 12:41
177,2,2,True,Graphic designer,1,recognition,14,sansforgetica,record,word,Probably seen,1.0,seen,record,3925.0,8.275121630216509,67,very easy to read,30-05-2019 12:41
178,2,2,True,Graphic designer,1,recognition,15,sansforgetica,prewing,non-word,Sure not seen,1.0,not seen,previtment,2321.0,7.749753406274437,67,very easy to read,30-05-2019 12:41
179,2,2,True,Graphic designer,1,recognition,16,sansforgetica,uncomilated,non-word,Probably not seen,1.0,not seen,uncessified,4748.0,8.465478755729558,67,very easy to read,30-05-2019 12:41
180,2,2,True,Graphic designer,2,lexical,1,sansforgetica,message,word,Sure word,1.0,,,4567.0,8.426611813185,67,ok,30-05-2019 12:41
181,2,2,True,Graphic designer,2,lexical,2,sansforgetica,difficulty,word,Sure word,1.0,,,1891.0,7.544861068658458,67,ok,30-05-2019 12:41
182,2,2,True,Graphic designer,2,lexical,3,sansforgetica,mostly,word,Sure word,1.0,,,2145.0,7.6708948313621175,67,ok,30-05-2019 12:41
183,2,2,True,Graphic designer,2,lexical,4,sansforgetica,shoulder,word,Sure word,1.0,,,3256.0,8.08825472712243,67,ok,30-05-2019 12:41
184,2,2,True,Graphic designer,2,lexical,5,sansforgetica,foreass,non-word,Probably non-word,1.0,,,3899.0,8.268475388982598,67,ok,30-05-2019 12:41
185,2,2,True,Graphic designer,2,lexical,6,sansforgetica,thick,word,Sure word,1.0,,,1785.0,7.487173694213739,67,ok,30-05-2019 12:41
186,2,2,True,Graphic designer,2,lexical,7,sansforgetica,falling,word,Sure word,1.0,,,1188.0,7.080026499922591,67,ok,30-05-2019 12:41
187,2,2,True,Graphic designer,2,lexical,8,sansforgetica,schieverily,non-word,Sure non-word,1.0,,,5377.0,8.589885876809678,67,ok,30-05-2019 12:41
188,2,2,True,Graphic designer,2,lexical,9,sansforgetica,central,word,Sure word,1.0,,,3422.0,8.137980454452139,67,ok,30-05-2019 12:41
189,2,2,True,Graphic designer,2,lexical,10,sansforgetica,issue,word,Sure word,1.0,,,1063.0,6.968850378341948,67,ok,30-05-2019 12:41
190,2,2,True,Graphic designer,2,lexical,11,sansforgetica,olded,non-word,Sure non-word,1.0,,,4769.0,8.469891918298224,67,ok,30-05-2019 12:41
191,2,2,True,Graphic designer,2,lexical,12,sansforgetica,pigeboy,non-word,Sure non-word,1.0,,,3463.0,8.149890544402423,67,ok,30-05-2019 12:41
192,2,2,True,Graphic designer,2,lexical,13,sansforgetica,allow,word,Sure word,1.0,,,2341.0,7.75833346749091,67,ok,30-05-2019 12:41
193,2,2,True,Graphic designer,2,lexical,14,sansforgetica,impreasive,non-word,Sure non-word,1.0,,,3318.0,8.10711747075039,67,ok,30-05-2019 12:41
194,2,2,True,Graphic designer,2,lexical,15,sansforgetica,childred,non-word,Sure non-word,1.0,,,4035.0,8.302761580704049,67,ok,30-05-2019 12:41
195,2,2,True,Graphic designer,2,lexical,16,sansforgetica,accation,non-word,Sure non-word,1.0,,,4062.0,8.30943074214033,67,ok,30-05-2019 12:41
196,2,2,True,Graphic designer,2,lexical,17,sansforgetica,wationation,non-word,Probably non-word,1.0,,,3724.0,8.222553638396958,67,ok,30-05-2019 12:41
197,2,2,True,Graphic designer,2,lexical,18,sansforgetica,cases,word,Sure word,1.0,,,2398.0,7.7823903355874595,67,ok,30-05-2019 12:41
198,2,2,True,Graphic designer,2,lexical,19,sansforgetica,darrity,non-word,Probably non-word,1.0,,,5576.0,8.62622695244036,67,ok,30-05-2019 12:41
199,2,2,True,Graphic designer,2,lexical,20,sansforgetica,compaganth,non-word,Sure non-word,1.0,,,7082.0,8.86531163267185,67,ok,30-05-2019 12:41
200,2,2,True,Graphic designer,2,recognition,1,arial,difficulty,word,Probably seen,1.0,seen,difficulty,5750.0,8.656955133791396,67,ok,30-05-2019 12:41
201,2,2,True,Graphic designer,2,recognition,2,arial,mostly,word,Sure seen,1.0,seen,mostly,1754.0,7.469654172932128,67,ok,30-05-2019 12:41
202,2,2,True,Graphic designer,2,recognition,3,arial,showed,word,Probably not seen,1.0,not seen,shoulder,1954.0,7.577633832602728,67,ok,30-05-2019 12:41
203,2,2,True,Graphic designer,2,recognition,4,arial,central,word,Sure seen,1.0,seen,central,1593.0,7.373374309910049,67,ok,30-05-2019 12:41
204,2,2,True,Graphic designer,2,recognition,5,arial,compagency,non-word,Probably not seen,1.0,not seen,compaganth,3616.0,8.193123721512068,67,ok,30-05-2019 12:41
205,2,2,True,Graphic designer,2,recognition,6,arial,forgotter,non-word,Sure not seen,1.0,not seen,foreass,6108.0,8.717354666338522,67,ok,30-05-2019 12:41
206,2,2,True,Graphic designer,2,recognition,7,arial,schieverily,non-word,Probably seen,1.0,seen,schieverily,5000.0,8.517193191416238,67,ok,30-05-2019 12:41
207,2,2,True,Graphic designer,2,recognition,8,arial,almost,word,Sure seen,0.0,not seen,allow,5329.0,8.580918882296782,67,ok,30-05-2019 12:41
208,2,2,True,Graphic designer,2,recognition,9,arial,itself,word,Sure not seen,1.0,not seen,issue,2875.0,7.963807953231451,67,ok,30-05-2019 12:41
209,2,2,True,Graphic designer,2,recognition,10,arial,impreasive,non-word,Probably seen,1.0,seen,impreasive,3258.0,8.08886878916199,67,ok,30-05-2019 12:41
210,2,2,True,Graphic designer,2,recognition,11,arial,familiar,word,Probably not seen,1.0,not seen,falling,1772.0,7.4798641311650265,67,ok,30-05-2019 12:41
211,2,2,True,Graphic designer,2,recognition,12,arial,accation,non-word,Sure seen,1.0,seen,accation,3269.0,8.092239406724211,67,ok,30-05-2019 12:41
212,2,2,True,Graphic designer,2,recognition,13,arial,wationation,non-word,Sure seen,1.0,seen,wationation,2237.0,7.71289096149013,67,ok,30-05-2019 12:41
213,2,2,True,Graphic designer,2,recognition,14,arial,message,word,Probably seen,1.0,seen,message,2954.0,7.9909154630913255,67,ok,30-05-2019 12:41
214,2,2,True,Graphic designer,2,recognition,15,arial,daymerly,non-word,Sure not seen,1.0,not seen,darrity,2273.0,7.728855823852543,67,ok,30-05-2019 12:41
215,2,2,True,Graphic designer,2,recognition,16,arial,opergence,non-word,Sure not seen,1.0,not seen,olded,2709.0,7.904334842085095,67,ok,30-05-2019 12:41
216,2,3,True,Graphic designer,1,lexical,1,arial,crevided,non-word,Sure non-word,1.0,,,3904.0,8.269756947532983,70,easy to read,30-05-2019 12:39
217,2,3,True,Graphic designer,1,lexical,2,arial,religious,word,Sure word,1.0,,,1528.0,7.331714969726466,70,easy to read,30-05-2019 12:39
218,2,3,True,Graphic designer,1,lexical,3,arial,reating,non-word,Sure non-word,1.0,,,2113.0,7.655864017616056,70,easy to read,30-05-2019 12:39
219,2,3,True,Graphic designer,1,lexical,4,arial,bound,word,Sure word,1.0,,,1637.0,7.400620577371135,70,easy to read,30-05-2019 12:39
220,2,3,True,Graphic designer,1,lexical,5,arial,minsuit,non-word,Sure non-word,1.0,,,2370.0,7.7706452341291765,70,easy to read,30-05-2019 12:39
221,2,3,True,Graphic designer,1,lexical,6,arial,sucling,non-word,Sure non-word,1.0,,,1663.0,7.416378479192928,70,easy to read,30-05-2019 12:39
222,2,3,True,Graphic designer,1,lexical,7,arial,busitown,non-word,Sure non-word,1.0,,,1370.0,7.222566018822171,70,easy to read,30-05-2019 12:39
223,2,3,True,Graphic designer,1,lexical,8,arial,possible,word,Sure word,1.0,,,1686.0,7.430114138561801,70,easy to read,30-05-2019 12:39
224,2,3,True,Graphic designer,1,lexical,9,arial,spread,word,Sure word,1.0,,,1248.0,7.129297548929373,70,easy to read,30-05-2019 12:39
225,2,3,True,Graphic designer,1,lexical,10,arial,rumbers,non-word,Sure non-word,1.0,,,1600.0,7.3777589082278725,70,easy to read,30-05-2019 12:39
226,2,3,True,Graphic designer,1,lexical,11,arial,drices,non-word,Sure word,0.0,,,1746.0,7.465082736399547,70,easy to read,30-05-2019 12:39
227,2,3,True,Graphic designer,1,lexical,12,arial,considered,word,Sure word,1.0,,,1854.0,7.5251007461258,70,easy to read,30-05-2019 12:39
228,2,3,True,Graphic designer,1,lexical,13,arial,newspable,non-word,Sure non-word,1.0,,,1849.0,7.522400231387125,70,easy to read,30-05-2019 12:39
229,2,3,True,Graphic designer,1,lexical,14,arial,hospital,word,Sure word,1.0,,,1448.0,7.277938572945661,70,easy to read,30-05-2019 12:39
230,2,3,True,Graphic designer,1,lexical,15,arial,govermists,non-word,Sure non-word,1.0,,,1462.0,7.2875606403097235,70,easy to read,30-05-2019 12:39
231,2,3,True,Graphic designer,1,lexical,16,arial,death,word,Sure word,1.0,,,1144.0,7.042286171939743,70,easy to read,30-05-2019 12:39
232,2,3,True,Graphic designer,1,lexical,17,arial,advantage,word,Probably non-word,0.0,,,8465.0,9.043695294567236,70,easy to read,30-05-2019 12:39
233,2,3,True,Graphic designer,1,lexical,18,arial,events,word,Sure word,1.0,,,1552.0,7.347299700743164,70,easy to read,30-05-2019 12:39
234,2,3,True,Graphic designer,1,lexical,19,arial,explaign,non-word,Sure non-word,1.0,,,1536.0,7.336936913707618,70,easy to read,30-05-2019 12:39
235,2,3,True,Graphic designer,1,lexical,20,arial,generally,word,Sure word,1.0,,,1680.0,7.426549072397305,70,easy to read,30-05-2019 12:39
236,2,3,True,Graphic designer,1,recognition,1,sansforgetica,possible,word,Sure seen,1.0,seen,possible,6382.0,8.76123680683819,70,easy to read,30-05-2019 12:39
237,2,3,True,Graphic designer,1,recognition,2,sansforgetica,remain,word,Sure not seen,1.0,not seen,religious,3567.0,8.17948018535889,70,easy to read,30-05-2019 12:39
238,2,3,True,Graphic designer,1,recognition,3,sansforgetica,nignawary,non-word,Sure not seen,1.0,not seen,newspable,2080.0,7.640123172695364,70,easy to read,30-05-2019 12:39
239,2,3,True,Graphic designer,1,recognition,4,sansforgetica,hotel,word,Sure not seen,1.0,not seen,hospital,2064.0,7.6324011266014535,70,easy to read,30-05-2019 12:39
240,2,3,True,Graphic designer,1,recognition,5,sansforgetica,reating,non-word,Sure seen,1.0,seen,reating,1751.0,7.467942332285852,70,easy to read,30-05-2019 12:39
241,2,3,True,Graphic designer,1,recognition,6,sansforgetica,spread,word,Sure seen,1.0,seen,spread,1368.0,7.221105098182496,70,easy to read,30-05-2019 12:39
242,2,3,True,Graphic designer,1,recognition,7,sansforgetica,bound,word,Sure seen,1.0,seen,bound,1353.0,7.210079628170788,70,easy to read,30-05-2019 12:39
243,2,3,True,Graphic designer,1,recognition,8,sansforgetica,decade,word,Sure not seen,1.0,not seen,death,1551.0,7.346655163176539,70,easy to read,30-05-2019 12:39
244,2,3,True,Graphic designer,1,recognition,9,sansforgetica,minsuit,non-word,Sure seen,1.0,seen,minsuit,1777.0,7.482681828154651,70,easy to read,30-05-2019 12:39
245,2,3,True,Graphic designer,1,recognition,10,sansforgetica,advice,word,Sure not seen,1.0,not seen,advantage,1953.0,7.577121930876679,70,easy to read,30-05-2019 12:39
246,2,3,True,Graphic designer,1,recognition,11,sansforgetica,ruscle,non-word,Sure not seen,1.0,not seen,rumbers,4822.0,8.480944058741116,70,easy to read,30-05-2019 12:39
247,2,3,True,Graphic designer,1,recognition,12,sansforgetica,events,word,Probably seen,1.0,seen,events,2065.0,7.632885505395133,70,easy to read,30-05-2019 12:39
248,2,3,True,Graphic designer,1,recognition,13,sansforgetica,explanented,non-word,Probably not seen,1.0,not seen,explaign,4168.0,8.335191583433202,70,easy to read,30-05-2019 12:39
249,2,3,True,Graphic designer,1,recognition,14,sansforgetica,busitown,non-word,Sure seen,1.0,seen,busitown,1913.0,7.556427969440253,70,easy to read,30-05-2019 12:39
250,2,3,True,Graphic designer,1,recognition,15,sansforgetica,sucling,non-word,Sure seen,1.0,seen,sucling,1616.0,7.38770923908104,70,easy to read,30-05-2019 12:39
251,2,3,True,Graphic designer,1,recognition,16,sansforgetica,creviver,non-word,Sure seen,0.0,not seen,crevided,1558.0,7.351158226430694,70,easy to read,30-05-2019 12:39
252,2,3,True,Graphic designer,2,lexical,1,sansforgetica,empefic,non-word,Probably non-word,1.0,,,4143.0,8.329175442077402,71,ok,30-05-2019 12:39
253,2,3,True,Graphic designer,2,lexical,2,sansforgetica,disartanter,non-word,Sure non-word,1.0,,,6290.0,8.746716349694486,71,ok,30-05-2019 12:39
254,2,3,True,Graphic designer,2,lexical,3,sansforgetica,prosequents,non-word,Sure non-word,1.0,,,3135.0,8.050384453067021,71,ok,30-05-2019 12:39
255,2,3,True,Graphic designer,2,lexical,4,sansforgetica,streets,word,Sure word,1.0,,,1416.0,7.255591274253665,71,ok,30-05-2019 12:39
256,2,3,True,Graphic designer,2,lexical,5,sansforgetica,through,word,Sure word,1.0,,,1551.0,7.346655163176539,71,ok,30-05-2019 12:39
257,2,3,True,Graphic designer,2,lexical,6,sansforgetica,church,word,Sure word,1.0,,,2666.0,7.888334500738654,71,ok,30-05-2019 12:39
258,2,3,True,Graphic designer,2,lexical,7,sansforgetica,animals,word,Sure word,1.0,,,1430.0,7.265429723253953,71,ok,30-05-2019 12:39
259,2,3,True,Graphic designer,2,lexical,8,sansforgetica,momeons,non-word,Sure non-word,1.0,,,2112.0,7.655390644826152,71,ok,30-05-2019 12:39
260,2,3,True,Graphic designer,2,lexical,9,sansforgetica,claygrable,non-word,Probably non-word,1.0,,,3065.0,8.027802848370312,71,ok,30-05-2019 12:39
261,2,3,True,Graphic designer,2,lexical,10,sansforgetica,cause,word,Sure word,1.0,,,2280.0,7.731930721948486,71,ok,30-05-2019 12:39
262,2,3,True,Graphic designer,2,lexical,11,sansforgetica,prime,word,Sure word,1.0,,,1408.0,7.249925536717988,71,ok,30-05-2019 12:39
263,2,3,True,Graphic designer,2,lexical,12,sansforgetica,rutogement,non-word,Sure non-word,1.0,,,2647.0,7.881182202227102,71,ok,30-05-2019 12:39
264,2,3,True,Graphic designer,2,lexical,13,sansforgetica,south,word,Sure word,1.0,,,2265.0,7.725330037917135,71,ok,30-05-2019 12:39
265,2,3,True,Graphic designer,2,lexical,14,sansforgetica,dissehons,non-word,Sure non-word,1.0,,,2056.0,7.628517626575055,71,ok,30-05-2019 12:39
266,2,3,True,Graphic designer,2,lexical,15,sansforgetica,hidnectes,non-word,Sure non-word,1.0,,,1984.0,7.592870287844818,71,ok,30-05-2019 12:39
267,2,3,True,Graphic designer,2,lexical,16,sansforgetica,eight,word,Sure word,1.0,,,991.0,6.898714534329988,71,ok,30-05-2019 12:39
268,2,3,True,Graphic designer,2,lexical,17,sansforgetica,invironable,non-word,Sure non-word,1.0,,,2488.0,7.81923445385907,71,ok,30-05-2019 12:39
269,2,3,True,Graphic designer,2,lexical,18,sansforgetica,trees,word,Sure word,1.0,,,1264.0,7.142036574706803,71,ok,30-05-2019 12:39
270,2,3,True,Graphic designer,2,lexical,19,sansforgetica,slightly,word,Sure word,1.0,,,1369.0,7.221835825288449,71,ok,30-05-2019 12:39
271,2,3,True,Graphic designer,2,lexical,20,sansforgetica,garance,non-word,Sure non-word,1.0,,,7375.0,8.905851181208021,71,ok,30-05-2019 12:39
272,2,3,True,Graphic designer,2,recognition,1,arial,higether,non-word,Probably not seen,1.0,not seen,hidnectes,4593.0,8.432288684325794,71,ok,30-05-2019 12:39
273,2,3,True,Graphic designer,2,recognition,2,arial,principle,word,Sure not seen,1.0,not seen,prime,1710.0,7.444248649496705,71,ok,30-05-2019 12:39
274,2,3,True,Graphic designer,2,recognition,3,arial,invironment,non-word,Sure seen,0.0,not seen,invironable,2984.0,8.001019961323651,71,ok,30-05-2019 12:39
275,2,3,True,Graphic designer,2,recognition,4,arial,central,word,Sure not seen,1.0,not seen,cause,1704.0,7.440733707389261,71,ok,30-05-2019 12:39
276,2,3,True,Graphic designer,2,recognition,5,arial,cigarette,word,Sure not seen,1.0,not seen,church,2201.0,7.696667081526462,71,ok,30-05-2019 12:39
277,2,3,True,Graphic designer,2,recognition,6,arial,garance,non-word,Sure seen,1.0,seen,garance,1863.0,7.529943370601589,71,ok,30-05-2019 12:39
278,2,3,True,Graphic designer,2,recognition,7,arial,trees,word,Sure seen,1.0,seen,trees,2593.0,7.860570785538664,71,ok,30-05-2019 12:39
279,2,3,True,Graphic designer,2,recognition,8,arial,streets,word,Sure seen,1.0,seen,streets,1784.0,7.486613313139955,71,ok,30-05-2019 12:39
280,2,3,True,Graphic designer,2,recognition,9,arial,prosequents,non-word,Probably seen,1.0,seen,prosequents,1672.0,7.421775793644647,71,ok,30-05-2019 12:39
281,2,3,True,Graphic designer,2,recognition,10,arial,discersion,non-word,Probably not seen,1.0,not seen,disartanter,2878.0,7.964850887447313,71,ok,30-05-2019 12:39
282,2,3,True,Graphic designer,2,recognition,11,arial,either,word,Sure not seen,1.0,not seen,eight,1881.0,7.53955882930103,71,ok,30-05-2019 12:39
283,2,3,True,Graphic designer,2,recognition,12,arial,through,word,Sure seen,1.0,seen,through,1432.0,7.266827347520591,71,ok,30-05-2019 12:39
284,2,3,True,Graphic designer,2,recognition,13,arial,dissehons,non-word,Probably seen,1.0,seen,dissehons,2679.0,7.893198869544609,71,ok,30-05-2019 12:39
285,2,3,True,Graphic designer,2,recognition,14,arial,south,word,Sure seen,1.0,seen,south,1186.0,7.078341579557671,71,ok,30-05-2019 12:39
286,2,3,True,Graphic designer,2,recognition,15,arial,rutongance,non-word,Sure seen,0.0,not seen,rutogement,1800.0,7.495541943884256,71,ok,30-05-2019 12:39
287,2,3,True,Graphic designer,2,recognition,16,arial,empefic,non-word,Sure seen,1.0,seen,empefic,1350.0,7.2078598714324755,71,ok,30-05-2019 12:39
288,2,4,True,Graphic designer,1,lexical,1,arial,condamenced,non-word,Probably word,0.0,,,5891.0,8.681181041521688,80,very easy to read,30-05-2019 12:31
289,2,4,True,Graphic designer,1,lexical,2,arial,cheir,non-word,Probably word,0.0,,,5535.0,8.618846845142738,80,very easy to read,30-05-2019 12:31
290,2,4,True,Graphic designer,1,lexical,3,arial,marmly,non-word,Probably word,0.0,,,3834.0,8.251663923605589,80,very easy to read,30-05-2019 12:31
291,2,4,True,Graphic designer,1,lexical,4,arial,depending,non-word,Sure word,0.0,,,2006.0,7.603897968521881,80,very easy to read,30-05-2019 12:31
292,2,4,True,Graphic designer,1,lexical,5,arial,amerying,non-word,Probably word,0.0,,,4892.0,8.495356496807062,80,very easy to read,30-05-2019 12:31
293,2,4,True,Graphic designer,1,lexical,6,arial,older,word,Sure word,1.0,,,1602.0,7.379008127628304,80,very easy to read,30-05-2019 12:31
294,2,4,True,Graphic designer,1,lexical,7,arial,millars,non-word,Probably word,0.0,,,3647.0,8.20166019080868,80,very easy to read,30-05-2019 12:31
295,2,4,True,Graphic designer,1,lexical,8,arial,command,word,Sure word,1.0,,,1582.0,7.366445148327599,80,very easy to read,30-05-2019 12:31
296,2,4,True,Graphic designer,1,lexical,9,arial,happy,word,Sure word,1.0,,,1136.0,7.035268599281097,80,very easy to read,30-05-2019 12:31
297,2,4,True,Graphic designer,1,lexical,10,arial,politics,word,Sure word,1.0,,,1087.0,6.99117688712121,80,very easy to read,30-05-2019 12:31
298,2,4,True,Graphic designer,1,lexical,11,arial,choice,word,Sure word,1.0,,,989.0,6.8966943316227125,80,very easy to read,30-05-2019 12:31
299,2,4,True,Graphic designer,1,lexical,12,arial,teeth,word,Sure word,1.0,,,1700.0,7.438383530044307,80,very easy to read,30-05-2019 12:31
300,2,4,True,Graphic designer,1,lexical,13,arial,impoining,non-word,Probably non-word,1.0,,,7798.0,8.961622569542543,80,very easy to read,30-05-2019 12:31
301,2,4,True,Graphic designer,1,lexical,14,arial,stared,word,Sure word,1.0,,,2046.0,7.6236419465115715,80,very easy to read,30-05-2019 12:31
302,2,4,True,Graphic designer,1,lexical,15,arial,history,word,Sure word,1.0,,,1472.0,7.294377299288821,80,very easy to read,30-05-2019 12:31
303,2,4,True,Graphic designer,1,lexical,16,arial,parearch,non-word,Probably non-word,1.0,,,7986.0,8.985445287623167,80,very easy to read,30-05-2019 12:31
304,2,4,True,Graphic designer,1,lexical,17,arial,changing,word,Sure word,1.0,,,1573.0,7.360739903058278,80,very easy to read,30-05-2019 12:31
305,2,4,True,Graphic designer,1,lexical,18,arial,called,word,Sure word,1.0,,,908.0,6.811244378601294,80,very easy to read,30-05-2019 12:31
306,2,4,True,Graphic designer,1,lexical,19,arial,consicular,non-word,Probably word,0.0,,,4811.0,8.478660241699453,80,very easy to read,30-05-2019 12:31
307,2,4,True,Graphic designer,1,lexical,20,arial,invironable,non-word,Probably word,0.0,,,4240.0,8.352318548226004,80,very easy to read,30-05-2019 12:31
308,2,4,True,Graphic designer,1,recognition,1,sansforgetica,minalry,non-word,Probably not seen,1.0,not seen,millars,11477.0,9.348100311680668,80,very easy to read,30-05-2019 12:31
309,2,4,True,Graphic designer,1,recognition,2,sansforgetica,commercial,word,Sure not seen,1.0,not seen,command,2599.0,7.8628820346414905,80,very easy to read,30-05-2019 12:31
310,2,4,True,Graphic designer,1,recognition,3,sansforgetica,changing,word,Probably seen,1.0,seen,changing,2060.0,7.630461261783627,80,very easy to read,30-05-2019 12:31
311,2,4,True,Graphic designer,1,recognition,4,sansforgetica,older,word,Sure seen,1.0,seen,older,1414.0,7.254177846456518,80,very easy to read,30-05-2019 12:31
312,2,4,True,Graphic designer,1,recognition,5,sansforgetica,calling,word,Sure seen,0.0,not seen,called,1058.0,6.964135612418245,80,very easy to read,30-05-2019 12:31
313,2,4,True,Graphic designer,1,recognition,6,sansforgetica,cheir,non-word,Sure seen,1.0,seen,cheir,1087.0,6.99117688712121,80,very easy to read,30-05-2019 12:31
314,2,4,True,Graphic designer,1,recognition,7,sansforgetica,happy,word,Sure seen,1.0,seen,happy,919.0,6.823286122355687,80,very easy to read,30-05-2019 12:31
315,2,4,True,Graphic designer,1,recognition,8,sansforgetica,marmly,non-word,Sure seen,1.0,seen,marmly,1295.0,7.166265974133638,80,very easy to read,30-05-2019 12:31
316,2,4,True,Graphic designer,1,recognition,9,sansforgetica,amerying,non-word,Probably not seen,0.0,seen,amerying,7316.0,8.897819009510757,80,very easy to read,30-05-2019 12:31
317,2,4,True,Graphic designer,1,recognition,10,sansforgetica,invironment,non-word,Sure seen,0.0,not seen,invironable,3193.0,8.068716192714781,80,very easy to read,30-05-2019 12:31
318,2,4,True,Graphic designer,1,recognition,11,sansforgetica,condamenced,non-word,Probably not seen,0.0,seen,condamenced,9570.0,9.166388484447,80,very easy to read,30-05-2019 12:31
319,2,4,True,Graphic designer,1,recognition,12,sansforgetica,considance,non-word,Probably not seen,1.0,not seen,consicular,3696.0,8.215006432761575,80,very easy to read,30-05-2019 12:31
320,2,4,True,Graphic designer,1,recognition,13,sansforgetica,stars,word,Sure not seen,1.0,not seen,stared,1632.0,7.397561535524052,80,very easy to read,30-05-2019 12:31
321,2,4,True,Graphic designer,1,recognition,14,sansforgetica,politics,word,Sure seen,1.0,seen,politics,1383.0,7.232010331664759,80,very easy to read,30-05-2019 12:31
322,2,4,True,Graphic designer,1,recognition,15,sansforgetica,holding,word,Sure not seen,1.0,not seen,history,3006.0,8.00836557031292,80,very easy to read,30-05-2019 12:31
323,2,4,True,Graphic designer,1,recognition,16,sansforgetica,depernment,non-word,Probably not seen,1.0,not seen,depending,4280.0,8.361708288575842,80,very easy to read,30-05-2019 12:31
324,2,4,True,Graphic designer,2,lexical,1,sansforgetica,seriver,non-word,Probably non-word,1.0,,,10193.0,9.229456489168413,50,difficult to read,30-05-2019 12:31
325,2,4,True,Graphic designer,2,lexical,2,sansforgetica,available,word,Sure word,1.0,,,1502.0,7.31455283232408,50,difficult to read,30-05-2019 12:31
326,2,4,True,Graphic designer,2,lexical,3,sansforgetica,speciah,non-word,Probably non-word,1.0,,,7433.0,8.913684824725294,50,difficult to read,30-05-2019 12:31
327,2,4,True,Graphic designer,2,lexical,4,sansforgetica,ordinary,word,Sure word,1.0,,,2126.0,7.661997558901893,50,difficult to read,30-05-2019 12:31
328,2,4,True,Graphic designer,2,lexical,5,sansforgetica,waste,word,Sure word,1.0,,,1671.0,7.421177528595393,50,difficult to read,30-05-2019 12:31
329,2,4,True,Graphic designer,2,lexical,6,sansforgetica,dreentic,non-word,Probably non-word,1.0,,,5091.0,8.535229553902337,50,difficult to read,30-05-2019 12:31
330,2,4,True,Graphic designer,2,lexical,7,sansforgetica,getting,word,Sure word,1.0,,,1700.0,7.438383530044307,50,difficult to read,30-05-2019 12:31
331,2,4,True,Graphic designer,2,lexical,8,sansforgetica,antendship,non-word,Probably non-word,1.0,,,7652.0,8.942722330560143,50,difficult to read,30-05-2019 12:31
332,2,4,True,Graphic designer,2,lexical,9,sansforgetica,simplete,non-word,Sure non-word,1.0,,,4596.0,8.432941638968646,50,difficult to read,30-05-2019 12:31
333,2,4,True,Graphic designer,2,lexical,10,sansforgetica,tealissed,non-word,Probably non-word,1.0,,,7504.0,8.92319149068606,50,difficult to read,30-05-2019 12:31
334,2,4,True,Graphic designer,2,lexical,11,sansforgetica,thirty,word,Sure word,1.0,,,1898.0,7.5485559791698735,50,difficult to read,30-05-2019 12:31
335,2,4,True,Graphic designer,2,lexical,12,sansforgetica,maybe,word,Sure word,1.0,,,890.0,6.7912214627261855,50,difficult to read,30-05-2019 12:31
336,2,4,True,Graphic designer,2,lexical,13,sansforgetica,examped,non-word,Sure word,0.0,,,1137.0,7.036148493750536,50,difficult to read,30-05-2019 12:31
337,2,4,True,Graphic designer,2,lexical,14,sansforgetica,trial,word,Sure word,1.0,,,2244.0,7.716015266642587,50,difficult to read,30-05-2019 12:31
338,2,4,True,Graphic designer,2,lexical,15,sansforgetica,office,word,Sure word,1.0,,,1256.0,7.135687347028144,50,difficult to read,30-05-2019 12:31
339,2,4,True,Graphic designer,2,lexical,16,sansforgetica,branch,word,Probably non-word,0.0,,,5377.0,8.589885876809678,50,difficult to read,30-05-2019 12:31
340,2,4,True,Graphic designer,2,lexical,17,sansforgetica,frafering,non-word,Probably non-word,1.0,,,5655.0,8.640295388550221,50,difficult to read,30-05-2019 12:31
341,2,4,True,Graphic designer,2,lexical,18,sansforgetica,capossed,non-word,Probably non-word,1.0,,,3203.0,8.071843149609158,50,difficult to read,30-05-2019 12:31
342,2,4,True,Graphic designer,2,lexical,19,sansforgetica,shound,non-word,Probably non-word,1.0,,,6664.0,8.804475183846678,50,difficult to read,30-05-2019 12:31
343,2,4,True,Graphic designer,2,lexical,20,sansforgetica,enormous,word,Sure word,1.0,,,2054.0,7.627544390488503,50,difficult to read,30-05-2019 12:31
344,2,4,True,Graphic designer,2,recognition,1,arial,enough,word,Probably not seen,1.0,not seen,enormous,6061.0,8.709630081951286,50,difficult to read,30-05-2019 12:31
345,2,4,True,Graphic designer,2,recognition,2,arial,frafering,non-word,Sure seen,1.0,seen,frafering,1818.0,7.505492274737424,50,difficult to read,30-05-2019 12:31
346,2,4,True,Graphic designer,2,recognition,3,arial,getting,word,Sure seen,1.0,seen,getting,3985.0,8.290292591224315,50,difficult to read,30-05-2019 12:31
347,2,4,True,Graphic designer,2,recognition,4,arial,officers,word,Sure not seen,1.0,not seen,office,2689.0,7.896924656268864,50,difficult to read,30-05-2019 12:31
348,2,4,True,Graphic designer,2,recognition,5,arial,trial,word,Sure seen,1.0,seen,trial,1197.0,7.087573705557973,50,difficult to read,30-05-2019 12:31
349,2,4,True,Graphic designer,2,recognition,6,arial,bread,word,Sure not seen,1.0,not seen,branch,2381.0,7.7752758464868625,50,difficult to read,30-05-2019 12:31
350,2,4,True,Graphic designer,2,recognition,7,arial,available,word,Sure seen,1.0,seen,available,1454.0,7.282073658093465,50,difficult to read,30-05-2019 12:31
351,2,4,True,Graphic designer,2,recognition,8,arial,drestion,non-word,Probably not seen,1.0,not seen,dreentic,2076.0,7.638198244285779,50,difficult to read,30-05-2019 12:31
352,2,4,True,Graphic designer,2,recognition,9,arial,antendship,non-word,Sure seen,1.0,seen,antendship,1632.0,7.397561535524052,50,difficult to read,30-05-2019 12:31
353,2,4,True,Graphic designer,2,recognition,10,arial,simplete,non-word,Sure seen,1.0,seen,simplete,3115.0,8.043984431221553,50,difficult to read,30-05-2019 12:31
354,2,4,True,Graphic designer,2,recognition,11,arial,speciah,non-word,Sure seen,1.0,seen,speciah,2146.0,7.671360923190644,50,difficult to read,30-05-2019 12:31
355,2,4,True,Graphic designer,2,recognition,12,arial,those,word,Probably not seen,1.0,not seen,thirty,3677.0,8.209852481301272,50,difficult to read,30-05-2019 12:31
356,2,4,True,Graphic designer,2,recognition,13,arial,waste,word,Sure seen,1.0,seen,waste,1316.0,7.182352111885263,50,difficult to read,30-05-2019 12:31
357,2,4,True,Graphic designer,2,recognition,14,arial,teliquely,non-word,Sure not seen,1.0,not seen,tealissed,1591.0,7.372118028337787,50,difficult to read,30-05-2019 12:31
358,2,4,True,Graphic designer,2,recognition,15,arial,serry,non-word,Sure not seen,1.0,not seen,seriver,1385.0,7.233455418621439,50,difficult to read,30-05-2019 12:31
359,2,4,True,Graphic designer,2,recognition,16,arial,exampses,non-word,Sure not seen,1.0,not seen,examped,2274.0,7.729295674310482,50,difficult to read,30-05-2019 12:31
360,2,5,True,Non-designer,1,lexical,1,arial,mental,word,Sure word,1.0,,,2178.0,7.686162303492906,70,very easy to read,30-05-2019 06:10
361,2,5,True,Non-designer,1,lexical,2,arial,happened,word,Sure word,1.0,,,1672.0,7.421775793644647,70,very easy to read,30-05-2019 06:10
362,2,5,True,Non-designer,1,lexical,3,arial,funditunian,non-word,Probably non-word,1.0,,,3924.0,8.274866820685254,70,very easy to read,30-05-2019 06:10
363,2,5,True,Non-designer,1,lexical,4,arial,someone,word,Sure word,1.0,,,1525.0,7.329749689041512,70,very easy to read,30-05-2019 06:10
364,2,5,True,Non-designer,1,lexical,5,arial,showed,word,Sure word,1.0,,,1703.0,7.440146680662688,70,very easy to read,30-05-2019 06:10
365,2,5,True,Non-designer,1,lexical,6,arial,bodder,non-word,Probably non-word,1.0,,,5648.0,8.639056779173078,70,very easy to read,30-05-2019 06:10
366,2,5,True,Non-designer,1,lexical,7,arial,extremics,non-word,Probably word,0.0,,,4115.0,8.32239411311117,70,very easy to read,30-05-2019 06:10
367,2,5,True,Non-designer,1,lexical,8,arial,games,word,Sure word,1.0,,,1464.0,7.288927694521257,70,very easy to read,30-05-2019 06:10
368,2,5,True,Non-designer,1,lexical,9,arial,morking,non-word,Probably non-word,1.0,,,2617.0,7.869783902530146,70,very easy to read,30-05-2019 06:10
369,2,5,True,Non-designer,1,lexical,10,arial,today,word,Sure word,1.0,,,1434.0,7.2682230211595655,70,very easy to read,30-05-2019 06:10
370,2,5,True,Non-designer,1,lexical,11,arial,impriavelly,non-word,Probably non-word,1.0,,,2032.0,7.616775808698373,70,very easy to read,30-05-2019 06:10
371,2,5,True,Non-designer,1,lexical,12,arial,unione,non-word,Probably non-word,1.0,,,2271.0,7.7279755421055585,70,very easy to read,30-05-2019 06:10
372,2,5,True,Non-designer,1,lexical,13,arial,monded,non-word,Probably non-word,1.0,,,3957.0,8.283241441385425,70,very easy to read,30-05-2019 06:10
373,2,5,True,Non-designer,1,lexical,14,arial,pretectely,non-word,Probably non-word,1.0,,,1307.0,7.175489713624222,70,very easy to read,30-05-2019 06:10
374,2,5,True,Non-designer,1,lexical,15,arial,sector,word,Sure word,1.0,,,1405.0,7.247792581767846,70,very easy to read,30-05-2019 06:10
375,2,5,True,Non-designer,1,lexical,16,arial,language,word,Sure word,1.0,,,1399.0,7.243512974665482,70,very easy to read,30-05-2019 06:10
376,2,5,True,Non-designer,1,lexical,17,arial,previtment,non-word,Probably non-word,1.0,,,2009.0,7.605392364814935,70,very easy to read,30-05-2019 06:10
377,2,5,True,Non-designer,1,lexical,18,arial,wrote,word,Sure word,1.0,,,1103.0,7.005789019253503,70,very easy to read,30-05-2019 06:10
378,2,5,True,Non-designer,1,lexical,19,arial,night,word,Sure word,1.0,,,1605.0,7.380879035564116,70,very easy to read,30-05-2019 06:10
379,2,5,True,Non-designer,1,lexical,20,arial,occalution,non-word,Sure non-word,1.0,,,2202.0,7.697121317282625,70,very easy to read,30-05-2019 06:10
380,2,5,True,Non-designer,1,recognition,1,sansforgetica,mention,word,Sure not seen,1.0,not seen,mental,8200.0,9.011889433252344,70,very easy to read,30-05-2019 06:10
381,2,5,True,Non-designer,1,recognition,2,sansforgetica,moopected,non-word,Sure not seen,1.0,not seen,monded,3479.0,8.154500175151941,70,very easy to read,30-05-2019 06:10
382,2,5,True,Non-designer,1,recognition,3,sansforgetica,night,word,Sure seen,1.0,seen,night,2173.0,7.6838639802564295,70,very easy to read,30-05-2019 06:10
383,2,5,True,Non-designer,1,recognition,4,sansforgetica,wrote,word,Sure seen,1.0,seen,wrote,1211.0,7.099201743553092,70,very easy to read,30-05-2019 06:10
384,2,5,True,Non-designer,1,recognition,5,sansforgetica,morricit,non-word,Sure not seen,1.0,not seen,morking,3613.0,8.19229373114764,70,very easy to read,30-05-2019 06:10
385,2,5,True,Non-designer,1,recognition,6,sansforgetica,garden,word,Sure not seen,1.0,not seen,games,1874.0,7.535830462798367,70,very easy to read,30-05-2019 06:10
386,2,5,True,Non-designer,1,recognition,7,sansforgetica,funditunian,non-word,Sure seen,1.0,seen,funditunian,3661.0,8.205491613120236,70,very easy to read,30-05-2019 06:10
387,2,5,True,Non-designer,1,recognition,8,sansforgetica,bodder,non-word,Sure seen,1.0,seen,bodder,1275.0,7.150701457592526,70,very easy to read,30-05-2019 06:10
388,2,5,True,Non-designer,1,recognition,9,sansforgetica,impriavelly,non-word,Probably not seen,0.0,seen,impriavelly,2762.0,7.923710333969238,70,very easy to read,30-05-2019 06:10
389,2,5,True,Non-designer,1,recognition,10,sansforgetica,today,word,Probably not seen,0.0,seen,today,2615.0,7.869019376499023,70,very easy to read,30-05-2019 06:10
390,2,5,True,Non-designer,1,recognition,11,sansforgetica,univerence,non-word,Probably not seen,1.0,not seen,unione,1615.0,7.387090235656757,70,very easy to read,30-05-2019 06:10
391,2,5,True,Non-designer,1,recognition,12,sansforgetica,sector,word,Sure seen,1.0,seen,sector,1358.0,7.213768308118642,70,very easy to read,30-05-2019 06:10
392,2,5,True,Non-designer,1,recognition,13,sansforgetica,occational,non-word,Sure seen,0.0,not seen,occalution,1608.0,7.382746449738912,70,very easy to read,30-05-2019 06:10
393,2,5,True,Non-designer,1,recognition,14,sansforgetica,pretectely,non-word,Sure seen,1.0,seen,pretectely,1306.0,7.174724309836376,70,very easy to read,30-05-2019 06:10
394,2,5,True,Non-designer,1,recognition,15,sansforgetica,something,word,Probably not seen,1.0,not seen,someone,1785.0,7.487173694213739,70,very easy to read,30-05-2019 06:10
395,2,5,True,Non-designer,1,recognition,16,sansforgetica,happening,word,Probably not seen,1.0,not seen,happened,1368.0,7.221105098182496,70,very easy to read,30-05-2019 06:10
396,2,5,True,Non-designer,2,lexical,1,sansforgetica,contact,word,Sure word,1.0,,,3631.0,8.197263371414335,80,ok,30-05-2019 06:10
397,2,5,True,Non-designer,2,lexical,2,sansforgetica,moral,word,Sure word,1.0,,,1211.0,7.099201743553092,80,ok,30-05-2019 06:10
398,2,5,True,Non-designer,2,lexical,3,sansforgetica,removed,word,Sure word,1.0,,,994.0,6.901737206656574,80,ok,30-05-2019 06:10
399,2,5,True,Non-designer,2,lexical,4,sansforgetica,mayer,non-word,Probably non-word,1.0,,,1738.0,7.460490305825338,80,ok,30-05-2019 06:10
400,2,5,True,Non-designer,2,lexical,5,sansforgetica,angry,word,Sure word,1.0,,,1125.0,7.025538314638521,80,ok,30-05-2019 06:10
401,2,5,True,Non-designer,2,lexical,6,sansforgetica,wassia,non-word,Probably non-word,1.0,,,1311.0,7.1785454837637,80,ok,30-05-2019 06:10
402,2,5,True,Non-designer,2,lexical,7,sansforgetica,retter,non-word,Probably non-word,1.0,,,1723.0,7.45182223652793,80,ok,30-05-2019 06:10
403,2,5,True,Non-designer,2,lexical,8,sansforgetica,vulnership,non-word,Probably non-word,1.0,,,1983.0,7.592366128519796,80,ok,30-05-2019 06:10
404,2,5,True,Non-designer,2,lexical,9,sansforgetica,decky,non-word,Probably non-word,1.0,,,1689.0,7.4318919168078,80,ok,30-05-2019 06:10
405,2,5,True,Non-designer,2,lexical,10,sansforgetica,drawn,word,Sure word,1.0,,,1217.0,7.104144092987527,80,ok,30-05-2019 06:10
406,2,5,True,Non-designer,2,lexical,11,sansforgetica,audience,word,Sure word,1.0,,,1375.0,7.226209010100671,80,ok,30-05-2019 06:10
407,2,5,True,Non-designer,2,lexical,12,sansforgetica,travel,word,Sure word,1.0,,,1042.0,6.948897222313312,80,ok,30-05-2019 06:10
408,2,5,True,Non-designer,2,lexical,13,sansforgetica,provisted,non-word,Probably non-word,1.0,,,1493.0,7.30854279753919,80,ok,30-05-2019 06:10
409,2,5,True,Non-designer,2,lexical,14,sansforgetica,equally,word,Sure word,1.0,,,1091.0,6.994849985833071,80,ok,30-05-2019 06:10
410,2,5,True,Non-designer,2,lexical,15,sansforgetica,libertably,non-word,Probably non-word,1.0,,,1999.0,7.6004023345004,80,ok,30-05-2019 06:10
411,2,5,True,Non-designer,2,lexical,16,sansforgetica,leasumated,non-word,Probably non-word,1.0,,,1533.0,7.334981878871814,80,ok,30-05-2019 06:10
412,2,5,True,Non-designer,2,lexical,17,sansforgetica,achieved,word,Sure word,1.0,,,1900.0,7.549609165154532,80,ok,30-05-2019 06:10
413,2,5,True,Non-designer,2,lexical,18,sansforgetica,danger,word,Sure word,1.0,,,1936.0,7.568379267836522,80,ok,30-05-2019 06:10
414,2,5,True,Non-designer,2,lexical,19,sansforgetica,plasumer,non-word,Sure non-word,1.0,,,1508.0,7.318539548567902,80,ok,30-05-2019 06:10
415,2,5,True,Non-designer,2,lexical,20,sansforgetica,becieve,non-word,Sure non-word,1.0,,,1739.0,7.461065514354283,80,ok,30-05-2019 06:10
416,2,5,True,Non-designer,2,recognition,1,arial,leauty,non-word,Sure not seen,1.0,not seen,leasumated,3521.0,8.166500319155052,80,ok,30-05-2019 06:10
417,2,5,True,Non-designer,2,recognition,2,arial,dangerous,word,Sure seen,0.0,not seen,danger,2364.0,7.768110378525988,80,ok,30-05-2019 06:10
418,2,5,True,Non-designer,2,recognition,3,arial,plasumer,non-word,Sure seen,1.0,seen,plasumer,1326.0,7.189922170745808,80,ok,30-05-2019 06:10
419,2,5,True,Non-designer,2,recognition,4,arial,angry,word,Sure seen,1.0,seen,angry,1705.0,7.4413203897176174,80,ok,30-05-2019 06:10
420,2,5,True,Non-designer,2,recognition,5,arial,treated,word,Probably not seen,1.0,not seen,travel,1714.0,7.446585099157725,80,ok,30-05-2019 06:10
421,2,5,True,Non-designer,2,recognition,6,arial,valeamer,non-word,Sure seen,0.0,not seen,vulnership,1688.0,7.431299675155903,80,ok,30-05-2019 06:10
422,2,5,True,Non-designer,2,recognition,7,arial,drawn,word,Sure seen,1.0,seen,drawn,1093.0,6.996681488176539,80,ok,30-05-2019 06:10
423,2,5,True,Non-designer,2,recognition,8,arial,decommental,non-word,Probably not seen,1.0,not seen,decky,2012.0,7.60688453121963,80,ok,30-05-2019 06:10
424,2,5,True,Non-designer,2,recognition,9,arial,content,word,Sure seen,0.0,not seen,contact,1430.0,7.265429723253953,80,ok,30-05-2019 06:10
425,2,5,True,Non-designer,2,recognition,10,arial,wassia,non-word,Sure seen,1.0,seen,wassia,1031.0,6.93828448401696,80,ok,30-05-2019 06:10
426,2,5,True,Non-designer,2,recognition,11,arial,morning,word,Sure seen,0.0,not seen,moral,2035.0,7.618251097876695,80,ok,30-05-2019 06:10
427,2,5,True,Non-designer,2,recognition,12,arial,beckeys,non-word,Probably not seen,1.0,not seen,becieve,1348.0,7.206377291472252,80,ok,30-05-2019 06:10
428,2,5,True,Non-designer,2,recognition,13,arial,equally,word,Sure seen,1.0,seen,equally,1208.0,7.0967213784947605,80,ok,30-05-2019 06:10
429,2,5,True,Non-designer,2,recognition,14,arial,libertably,non-word,Sure seen,1.0,seen,libertably,2050.0,7.6255950721324535,80,ok,30-05-2019 06:10
430,2,5,True,Non-designer,2,recognition,15,arial,removed,word,Probably not seen,0.0,seen,removed,2392.0,7.779885115070522,80,ok,30-05-2019 06:10
431,2,5,True,Non-designer,2,recognition,16,arial,provisted,non-word,Probably seen,1.0,seen,provisted,3469.0,8.15162164696975,80,ok,30-05-2019 06:10
432,2,6,False,Non-designer,1,lexical,1,arial,follow,word,Sure word,1.0,,,1447.0,7.277247726631484,20,easy to read,29-05-2019 08:58
433,2,6,False,Non-designer,1,lexical,2,arial,activities,word,Sure word,1.0,,,1151.0,7.048386408721883,20,easy to read,29-05-2019 08:58
434,2,6,False,Non-designer,1,lexical,3,arial,brime,non-word,Probably word,0.0,,,3832.0,8.251142139090751,20,easy to read,29-05-2019 08:58
435,2,6,False,Non-designer,1,lexical,4,arial,gives,word,Sure word,1.0,,,1447.0,7.277247726631484,20,easy to read,29-05-2019 08:58
436,2,6,False,Non-designer,1,lexical,5,arial,names,word,Sure word,1.0,,,1209.0,7.097548850614793,20,easy to read,29-05-2019 08:58
437,2,6,False,Non-designer,1,lexical,6,arial,caparetter,non-word,Sure non-word,1.0,,,2461.0,7.8083230503910555,20,easy to read,29-05-2019 08:58
438,2,6,False,Non-designer,1,lexical,7,arial,blearate,non-word,Sure non-word,1.0,,,1861.0,7.528869256642251,20,easy to read,29-05-2019 08:58
439,2,6,False,Non-designer,1,lexical,8,arial,reating,non-word,Sure non-word,1.0,,,3557.0,8.176672771948455,20,easy to read,29-05-2019 08:58
440,2,6,False,Non-designer,1,lexical,9,arial,standards,word,Sure word,1.0,,,1793.0,7.491645473605133,20,easy to read,29-05-2019 08:58
441,2,6,False,Non-designer,1,lexical,10,arial,repearated,non-word,Sure non-word,1.0,,,1952.0,7.5766097669730375,20,easy to read,29-05-2019 08:58
442,2,6,False,Non-designer,1,lexical,11,arial,speaking,word,Sure word,1.0,,,1404.0,7.247080584585756,20,easy to read,29-05-2019 08:58
443,2,6,False,Non-designer,1,lexical,12,arial,fairly,word,Sure word,1.0,,,1757.0,7.471363088187097,20,easy to read,29-05-2019 08:58
444,2,6,False,Non-designer,1,lexical,13,arial,vegantable,non-word,Probably word,0.0,,,5353.0,8.585412430393381,20,easy to read,29-05-2019 08:58
445,2,6,False,Non-designer,1,lexical,14,arial,exerional,non-word,Probably word,0.0,,,4185.0,8.339261982923576,20,easy to read,29-05-2019 08:58
446,2,6,False,Non-designer,1,lexical,15,arial,persondants,non-word,Sure non-word,1.0,,,3089.0,8.035602692918582,20,easy to read,29-05-2019 08:58
447,2,6,False,Non-designer,1,lexical,16,arial,stage,word,Sure word,1.0,,,1337.0,7.198183577101943,20,easy to read,29-05-2019 08:58
448,2,6,False,Non-designer,1,lexical,17,arial,centoment,non-word,Sure non-word,1.0,,,5262.0,8.568266461600238,20,easy to read,29-05-2019 08:58
449,2,6,False,Non-designer,1,lexical,18,arial,allond,non-word,Sure non-word,1.0,,,1825.0,7.509335266016592,20,easy to read,29-05-2019 08:58
450,2,6,False,Non-designer,1,lexical,19,arial,spoke,word,Sure word,1.0,,,2235.0,7.711996507047669,20,easy to read,29-05-2019 08:58
451,2,6,False,Non-designer,1,lexical,20,arial,field,word,Sure word,1.0,,,1006.0,6.913737350659685,20,easy to read,29-05-2019 08:58
452,2,6,False,Non-designer,1,recognition,1,sansforgetica,capites,non-word,Probably not seen,1.0,not seen,caparetter,5945.0,8.690305809124883,20,easy to read,29-05-2019 08:58
453,2,6,False,Non-designer,1,recognition,2,sansforgetica,brisis,non-word,Sure not seen,1.0,not seen,brime,1967.0,7.584264818389059,20,easy to read,29-05-2019 08:58
454,2,6,False,Non-designer,1,recognition,3,sansforgetica,speaking,word,Probably seen,1.0,seen,speaking,5061.0,8.529319371214077,20,easy to read,29-05-2019 08:58
455,2,6,False,Non-designer,1,recognition,4,sansforgetica,fairly,word,Sure seen,1.0,seen,fairly,1410.0,7.251344983372214,20,easy to read,29-05-2019 08:58
456,2,6,False,Non-designer,1,recognition,5,sansforgetica,field,word,Sure seen,1.0,seen,field,908.0,6.811244378601294,20,easy to read,29-05-2019 08:58
457,2,6,False,Non-designer,1,recognition,6,sansforgetica,narrow,word,Sure not seen,1.0,not seen,names,2579.0,7.8551570058813445,20,easy to read,29-05-2019 08:58
458,2,6,False,Non-designer,1,recognition,7,sansforgetica,exisonent,non-word,Probably not seen,1.0,not seen,exerional,2986.0,8.001689978099135,20,easy to read,29-05-2019 08:58
459,2,6,False,Non-designer,1,recognition,8,sansforgetica,giving,word,Sure seen,0.0,not seen,gives,2142.0,7.669495251007694,20,easy to read,29-05-2019 08:58
460,2,6,False,Non-designer,1,recognition,9,sansforgetica,repearated,non-word,Sure seen,1.0,seen,repearated,2207.0,7.699389406256737,20,easy to read,29-05-2019 08:58
461,2,6,False,Non-designer,1,recognition,10,sansforgetica,actual,word,Probably not seen,1.0,not seen,activities,4139.0,8.328209491748732,20,easy to read,29-05-2019 08:58
462,2,6,False,Non-designer,1,recognition,11,sansforgetica,allond,non-word,Sure seen,1.0,seen,allond,1349.0,7.207118856207756,20,easy to read,29-05-2019 08:58
463,2,6,False,Non-designer,1,recognition,12,sansforgetica,spoke,word,Sure seen,1.0,seen,spoke,1082.0,6.9865664594064265,20,easy to read,29-05-2019 08:58
464,2,6,False,Non-designer,1,recognition,13,sansforgetica,bodder,non-word,Sure not seen,1.0,not seen,blearate,2049.0,7.6251071482389,20,easy to read,29-05-2019 08:58
465,2,6,False,Non-designer,1,recognition,14,sansforgetica,persondants,non-word,Sure seen,1.0,seen,persondants,1812.0,7.502186486602924,20,easy to read,29-05-2019 08:58
466,2,6,False,Non-designer,1,recognition,15,sansforgetica,following,word,Sure seen,0.0,not seen,follow,2920.0,7.979338895262328,20,easy to read,29-05-2019 08:58
467,2,6,False,Non-designer,1,recognition,16,sansforgetica,reating,non-word,Sure seen,1.0,seen,reating,1854.0,7.5251007461258,20,easy to read,29-05-2019 08:58
468,2,6,False,Non-designer,2,lexical,1,sansforgetica,pigeboy,non-word,Probably word,0.0,,,5588.0,8.628376720376853,10,difficult to read,29-05-2019 08:58
469,2,6,False,Non-designer,2,lexical,2,sansforgetica,shows,word,Sure word,1.0,,,1651.0,7.409136443920128,10,difficult to read,29-05-2019 08:58
470,2,6,False,Non-designer,2,lexical,3,sansforgetica,offer,word,Sure word,1.0,,,1090.0,6.993932975223189,10,difficult to read,29-05-2019 08:58
471,2,6,False,Non-designer,2,lexical,4,sansforgetica,railts,non-word,Probably non-word,1.0,,,2789.0,7.933438387627489,10,difficult to read,29-05-2019 08:58
472,2,6,False,Non-designer,2,lexical,5,sansforgetica,nommidated,non-word,Probably non-word,1.0,,,7562.0,8.930890984450878,10,difficult to read,29-05-2019 08:58
473,2,6,False,Non-designer,2,lexical,6,sansforgetica,amonged,non-word,Probably non-word,1.0,,,1785.0,7.487173694213739,10,difficult to read,29-05-2019 08:58
474,2,6,False,Non-designer,2,lexical,7,sansforgetica,ninished,non-word,Sure non-word,1.0,,,3172.0,8.06211758275474,10,difficult to read,29-05-2019 08:58
475,2,6,False,Non-designer,2,lexical,8,sansforgetica,trouble,word,Sure word,1.0,,,1255.0,7.134890851565884,10,difficult to read,29-05-2019 08:58
476,2,6,False,Non-designer,2,lexical,9,sansforgetica,indesphant,non-word,Probably non-word,1.0,,,4837.0,8.484049972822984,10,difficult to read,29-05-2019 08:58
477,2,6,False,Non-designer,2,lexical,10,sansforgetica,books,word,Sure word,1.0,,,1260.0,7.138866999945524,10,difficult to read,29-05-2019 08:58
478,2,6,False,Non-designer,2,lexical,11,sansforgetica,misher,non-word,Probably non-word,1.0,,,3498.0,8.159946655578548,10,difficult to read,29-05-2019 08:58
479,2,6,False,Non-designer,2,lexical,12,sansforgetica,fingers,word,Sure word,1.0,,,1247.0,7.1284959456800365,10,difficult to read,29-05-2019 08:58
480,2,6,False,Non-designer,2,lexical,13,sansforgetica,without,word,Sure word,1.0,,,1141.0,7.039660349862076,10,difficult to read,29-05-2019 08:58
481,2,6,False,Non-designer,2,lexical,14,sansforgetica,rules,word,Sure word,1.0,,,1714.0,7.446585099157725,10,difficult to read,29-05-2019 08:58
482,2,6,False,Non-designer,2,lexical,15,sansforgetica,likely,word,Sure word,1.0,,,1068.0,6.97354301952014,10,difficult to read,29-05-2019 08:58
483,2,6,False,Non-designer,2,lexical,16,sansforgetica,section,word,Sure word,1.0,,,1085.0,6.98933526597456,10,difficult to read,29-05-2019 08:58
484,2,6,False,Non-designer,2,lexical,17,sansforgetica,machases,non-word,Sure non-word,1.0,,,2166.0,7.680637427560936,10,difficult to read,29-05-2019 08:58
485,2,6,False,Non-designer,2,lexical,18,sansforgetica,partnestion,non-word,Probably non-word,1.0,,,2846.0,7.953669778649798,10,difficult to read,29-05-2019 08:58
486,2,6,False,Non-designer,2,lexical,19,sansforgetica,braven,non-word,Probably word,0.0,,,3426.0,8.139148678884066,10,difficult to read,29-05-2019 08:58
487,2,6,False,Non-designer,2,lexical,20,sansforgetica,leading,word,Sure word,1.0,,,1055.0,6.961296045910167,10,difficult to read,29-05-2019 08:58
488,2,6,False,Non-designer,2,recognition,1,arial,leading,word,Sure seen,1.0,seen,leading,3152.0,8.05579245097777,10,difficult to read,29-05-2019 08:58
489,2,6,False,Non-designer,2,recognition,2,arial,mixting,non-word,Probably not seen,1.0,not seen,misher,1840.0,7.517520850603031,10,difficult to read,29-05-2019 08:58
490,2,6,False,Non-designer,2,recognition,3,arial,partnestion,non-word,Sure seen,1.0,seen,partnestion,1506.0,7.317212408359839,10,difficult to read,29-05-2019 08:58
491,2,6,False,Non-designer,2,recognition,4,arial,machases,non-word,Sure not seen,0.0,seen,machases,2024.0,7.6128310304073565,10,difficult to read,29-05-2019 08:58
492,2,6,False,Non-designer,2,recognition,5,arial,trust,word,Probably not seen,1.0,not seen,trouble,2158.0,7.67693714581808,10,difficult to read,29-05-2019 08:58
493,2,6,False,Non-designer,2,recognition,6,arial,amonged,non-word,Probably not seen,0.0,seen,amonged,2491.0,7.820439515262181,10,difficult to read,29-05-2019 08:58
494,2,6,False,Non-designer,2,recognition,7,arial,section,word,Sure seen,1.0,seen,section,1455.0,7.282761179605593,10,difficult to read,29-05-2019 08:58
495,2,6,False,Non-designer,2,recognition,8,arial,offer,word,Sure seen,1.0,seen,offer,1571.0,7.359467638255621,10,difficult to read,29-05-2019 08:58
496,2,6,False,Non-designer,2,recognition,9,arial,nobit,non-word,Sure not seen,1.0,not seen,ninished,2669.0,7.889459149404524,10,difficult to read,29-05-2019 08:58
497,2,6,False,Non-designer,2,recognition,10,arial,rules,word,Sure seen,1.0,seen,rules,2009.0,7.605392364814935,10,difficult to read,29-05-2019 08:58
498,2,6,False,Non-designer,2,recognition,11,arial,nontrantion,non-word,Sure not seen,1.0,not seen,nommidated,3492.0,8.158229916959494,10,difficult to read,29-05-2019 08:58
499,2,6,False,Non-designer,2,recognition,12,arial,railts,non-word,Probably not seen,0.0,seen,railts,2402.0,7.784057002639929,10,difficult to read,29-05-2019 08:58
500,2,6,False,Non-designer,2,recognition,13,arial,sides,word,Sure seen,0.0,not seen,shows,1339.0,7.199678345691172,10,difficult to read,29-05-2019 08:58
501,2,6,False,Non-designer,2,recognition,14,arial,bottle,word,Sure not seen,1.0,not seen,books,1821.0,7.507141079727608,10,difficult to read,29-05-2019 08:58
502,2,6,False,Non-designer,2,recognition,15,arial,finished,word,Sure seen,0.0,not seen,fingers,1197.0,7.087573705557973,10,difficult to read,29-05-2019 08:58
503,2,6,False,Non-designer,2,recognition,16,arial,breakdous,non-word,Probably not seen,1.0,not seen,braven,2669.0,7.889459149404524,10,difficult to read,29-05-2019 08:58
504,2,7,True,Non-designer,1,lexical,1,arial,matragants,non-word,Probably non-word,1.0,,,45196.0,10.718763866329137,36,very easy to read,27-05-2019 11:13
505,2,7,True,Non-designer,1,lexical,2,arial,basic,word,Sure word,1.0,,,6970.0,8.84937050375457,36,very easy to read,27-05-2019 11:13
506,2,7,True,Non-designer,1,lexical,3,arial,conferation,non-word,Probably non-word,1.0,,,28597.0,10.261057096201172,36,very easy to read,27-05-2019 11:13
507,2,7,True,Non-designer,1,lexical,4,arial,explained,word,Sure word,1.0,,,5392.0,8.592671652592143,36,very easy to read,27-05-2019 11:13
508,2,7,True,Non-designer,1,lexical,5,arial,female,word,Sure word,1.0,,,3049.0,8.022568946988255,36,very easy to read,27-05-2019 11:13
509,2,7,True,Non-designer,1,lexical,6,arial,saying,word,Sure word,1.0,,,3929.0,8.27614021955846,36,very easy to read,27-05-2019 11:13
510,2,7,True,Non-designer,1,lexical,7,arial,mostly,word,Sure word,1.0,,,2383.0,7.776115477098742,36,very easy to read,27-05-2019 11:13
511,2,7,True,Non-designer,1,lexical,8,arial,flight,word,Sure word,1.0,,,2250.0,7.718685495198466,36,very easy to read,27-05-2019 11:13
512,2,7,True,Non-designer,1,lexical,9,arial,shouction,non-word,Probably non-word,1.0,,,30115.0,10.312778665477822,36,very easy to read,27-05-2019 11:13
513,2,7,True,Non-designer,1,lexical,10,arial,threat,word,Sure word,1.0,,,3481.0,8.15507488781144,36,very easy to read,27-05-2019 11:13
514,2,7,True,Non-designer,1,lexical,11,arial,aggreciled,non-word,Probably non-word,1.0,,,3289.0,8.098338846189057,36,very easy to read,27-05-2019 11:13
515,2,7,True,Non-designer,1,lexical,12,arial,rectined,non-word,Probably non-word,1.0,,,34689.0,10.454177912797071,36,very easy to read,27-05-2019 11:13
516,2,7,True,Non-designer,1,lexical,13,arial,melatisted,non-word,Probably non-word,1.0,,,16370.0,9.70320567036518,36,very easy to read,27-05-2019 11:13
517,2,7,True,Non-designer,1,lexical,14,arial,trads,non-word,Sure word,0.0,,,2260.0,7.723120092266331,36,very easy to read,27-05-2019 11:13
518,2,7,True,Non-designer,1,lexical,15,arial,formal,word,Sure word,1.0,,,1806.0,7.498869733976931,36,very easy to read,27-05-2019 11:13
519,2,7,True,Non-designer,1,lexical,16,arial,docionating,non-word,Probably word,0.0,,,36363.0,10.501307053138621,36,very easy to read,27-05-2019 11:13
520,2,7,True,Non-designer,1,lexical,17,arial,feelings,word,Sure word,1.0,,,1850.0,7.52294091807237,36,very easy to read,27-05-2019 11:13
521,2,7,True,Non-designer,1,lexical,18,arial,potervation,non-word,Probably non-word,1.0,,,52881.0,10.875799385088063,36,very easy to read,27-05-2019 11:13
522,2,7,True,Non-designer,1,lexical,19,arial,still,word,Sure word,1.0,,,1609.0,7.3833681469923835,36,very easy to read,27-05-2019 11:13
523,2,7,True,Non-designer,1,lexical,20,arial,trambling,non-word,Sure word,0.0,,,1863.0,7.529943370601589,36,very easy to read,27-05-2019 11:13
524,2,7,True,Non-designer,1,recognition,1,sansforgetica,shouction,non-word,Sure seen,1.0,seen,shouction,15668.0,9.659375694785721,36,very easy to read,27-05-2019 11:13
525,2,7,True,Non-designer,1,recognition,2,sansforgetica,conferical,non-word,Probably not seen,1.0,not seen,conferation,6867.0,8.834482608620677,36,very easy to read,27-05-2019 11:13
526,2,7,True,Non-designer,1,recognition,3,sansforgetica,female,word,Sure seen,1.0,seen,female,2548.0,7.843064016692054,36,very easy to read,27-05-2019 11:13
527,2,7,True,Non-designer,1,recognition,4,sansforgetica,matragants,non-word,Sure seen,1.0,seen,matragants,2124.0,7.66105638236183,36,very easy to read,27-05-2019 11:13
528,2,7,True,Non-designer,1,recognition,5,sansforgetica,saying,word,Sure seen,1.0,seen,saying,1659.0,7.413970290190444,36,very easy to read,27-05-2019 11:13
529,2,7,True,Non-designer,1,recognition,6,sansforgetica,trambling,non-word,Sure seen,1.0,seen,trambling,1949.0,7.575071699507561,36,very easy to read,27-05-2019 11:13
530,2,7,True,Non-designer,1,recognition,7,sansforgetica,potervation,non-word,Sure seen,1.0,seen,potervation,7137.0,8.873047798971067,36,very easy to read,27-05-2019 11:13
531,2,7,True,Non-designer,1,recognition,8,sansforgetica,basic,word,Probably not seen,0.0,seen,basic,5050.0,8.527143522269405,36,very easy to read,27-05-2019 11:13
532,2,7,True,Non-designer,1,recognition,9,sansforgetica,floor,word,Sure not seen,1.0,not seen,flight,4475.0,8.406261630708956,36,very easy to read,27-05-2019 11:13
533,2,7,True,Non-designer,1,recognition,10,sansforgetica,refectuning,non-word,Probably not seen,1.0,not seen,rectined,6774.0,8.820847033377717,36,very easy to read,27-05-2019 11:13
534,2,7,True,Non-designer,1,recognition,11,sansforgetica,formed,word,Probably not seen,1.0,not seen,formal,3313.0,8.105609402299896,36,very easy to read,27-05-2019 11:13
535,2,7,True,Non-designer,1,recognition,12,sansforgetica,doweract,non-word,Sure not seen,1.0,not seen,docionating,2043.0,7.622174594817622,36,very easy to read,27-05-2019 11:13
536,2,7,True,Non-designer,1,recognition,13,sansforgetica,airalow,non-word,Sure not seen,1.0,not seen,aggreciled,2526.0,7.8343923029104365,36,very easy to read,27-05-2019 11:13
537,2,7,True,Non-designer,1,recognition,14,sansforgetica,feels,word,Sure seen,0.0,not seen,feelings,1818.0,7.505492274737424,36,very easy to read,27-05-2019 11:13
538,2,7,True,Non-designer,1,recognition,15,sansforgetica,explained,word,Sure seen,1.0,seen,explained,1533.0,7.334981878871814,36,very easy to read,27-05-2019 11:13
539,2,7,True,Non-designer,1,recognition,16,sansforgetica,three,word,Sure not seen,1.0,not seen,threat,2450.0,7.803843303538772,36,very easy to read,27-05-2019 11:13
540,2,7,True,Non-designer,2,lexical,1,sansforgetica,starned,non-word,Probably non-word,1.0,,,42790.0,10.664059709410862,23,difficult to read,27-05-2019 11:13
541,2,7,True,Non-designer,2,lexical,2,sansforgetica,cheir,non-word,Probably non-word,1.0,,,5945.0,8.690305809124883,23,difficult to read,27-05-2019 11:13
542,2,7,True,Non-designer,2,lexical,3,sansforgetica,farmers,word,Sure word,1.0,,,4437.0,8.39773375137891,23,difficult to read,27-05-2019 11:13
543,2,7,True,Non-designer,2,lexical,4,sansforgetica,oppech,non-word,Probably non-word,1.0,,,23801.0,10.077482875583607,23,difficult to read,27-05-2019 11:13
544,2,7,True,Non-designer,2,lexical,5,sansforgetica,shook,word,Sure word,1.0,,,2393.0,7.780303087908373,23,difficult to read,27-05-2019 11:13
545,2,7,True,Non-designer,2,lexical,6,sansforgetica,airport,word,Sure word,1.0,,,1778.0,7.48324441607385,23,difficult to read,27-05-2019 11:13
546,2,7,True,Non-designer,2,lexical,7,sansforgetica,editising,non-word,Probably non-word,1.0,,,7299.0,8.895492631451633,23,difficult to read,27-05-2019 11:13
547,2,7,True,Non-designer,2,lexical,8,sansforgetica,nodded,word,Probably word,1.0,,,8630.0,9.062999784077473,23,difficult to read,27-05-2019 11:13
548,2,7,True,Non-designer,2,lexical,9,sansforgetica,terms,word,Sure word,1.0,,,3039.0,8.019283792916793,23,difficult to read,27-05-2019 11:13
549,2,7,True,Non-designer,2,lexical,10,sansforgetica,remain,word,Sure word,1.0,,,1750.0,7.4673710669175595,23,difficult to read,27-05-2019 11:13
550,2,7,True,Non-designer,2,lexical,11,sansforgetica,material,word,Sure word,1.0,,,1700.0,7.438383530044307,23,difficult to read,27-05-2019 11:13
551,2,7,True,Non-designer,2,lexical,12,sansforgetica,cloature,non-word,Probably non-word,1.0,,,23649.0,10.071076109728018,23,difficult to read,27-05-2019 11:13
552,2,7,True,Non-designer,2,lexical,13,sansforgetica,courch,non-word,Probably non-word,1.0,,,18234.0,9.811043262144848,23,difficult to read,27-05-2019 11:13
553,2,7,True,Non-designer,2,lexical,14,sansforgetica,sometions,non-word,Probably non-word,1.0,,,4601.0,8.434028950155469,23,difficult to read,27-05-2019 11:13
554,2,7,True,Non-designer,2,lexical,15,sansforgetica,cleep,non-word,Sure word,0.0,,,15765.0,9.665547571979161,23,difficult to read,27-05-2019 11:13
555,2,7,True,Non-designer,2,lexical,16,sansforgetica,rivies,non-word,Probably non-word,1.0,,,20365.0,9.921573020082512,23,difficult to read,27-05-2019 11:13
556,2,7,True,Non-designer,2,lexical,17,sansforgetica,months,word,Sure word,1.0,,,3505.0,8.16194579946869,23,difficult to read,27-05-2019 11:13
557,2,7,True,Non-designer,2,lexical,18,sansforgetica,means,word,Sure word,1.0,,,1482.0,7.301147805856032,23,difficult to read,27-05-2019 11:13
558,2,7,True,Non-designer,2,lexical,19,sansforgetica,computer,word,Sure word,1.0,,,1483.0,7.301822342137932,23,difficult to read,27-05-2019 11:13
559,2,7,True,Non-designer,2,lexical,20,sansforgetica,pritialing,non-word,Sure non-word,1.0,,,29751.0,10.300618023854234,23,difficult to read,27-05-2019 11:13
560,2,7,True,Non-designer,2,recognition,1,arial,cleep,non-word,Sure seen,1.0,seen,cleep,7322.0,8.898638793680181,23,difficult to read,27-05-2019 11:13
561,2,7,True,Non-designer,2,recognition,2,arial,proception,non-word,Probably not seen,1.0,not seen,pritialing,5789.0,8.663714844079005,23,difficult to read,27-05-2019 11:13
562,2,7,True,Non-designer,2,recognition,3,arial,concern,word,Probably not seen,1.0,not seen,computer,2576.0,7.853993087224244,23,difficult to read,27-05-2019 11:13
563,2,7,True,Non-designer,2,recognition,4,arial,meant,word,Probably not seen,1.0,not seen,means,5649.0,8.639233817325263,23,difficult to read,27-05-2019 11:13
564,2,7,True,Non-designer,2,recognition,5,arial,eigagement,non-word,Sure not seen,1.0,not seen,editising,2318.0,7.748460023899697,23,difficult to read,27-05-2019 11:13
565,2,7,True,Non-designer,2,recognition,6,arial,cloature,non-word,Sure seen,1.0,seen,cloature,4074.0,8.31238059678675,23,difficult to read,27-05-2019 11:13
566,2,7,True,Non-designer,2,recognition,7,arial,alive,word,Sure not seen,1.0,not seen,airport,5130.0,8.542860938164814,23,difficult to read,27-05-2019 11:13
567,2,7,True,Non-designer,2,recognition,8,arial,shook,word,Sure not seen,0.0,seen,shook,8184.0,9.009936307631463,23,difficult to read,27-05-2019 11:13
568,2,7,True,Non-designer,2,recognition,9,arial,courch,non-word,Sure seen,1.0,seen,courch,6716.0,8.812248018197431,23,difficult to read,27-05-2019 11:13
569,2,7,True,Non-designer,2,recognition,10,arial,oppech,non-word,Sure seen,1.0,seen,oppech,1968.0,7.584773077612199,23,difficult to read,27-05-2019 11:13
570,2,7,True,Non-designer,2,recognition,11,arial,rivil,non-word,Probably not seen,1.0,not seen,rivies,3777.0,8.236685322712457,23,difficult to read,27-05-2019 11:13
571,2,7,True,Non-designer,2,recognition,12,arial,farmers,word,Sure seen,1.0,seen,farmers,1469.0,7.292337176173877,23,difficult to read,27-05-2019 11:13
572,2,7,True,Non-designer,2,recognition,13,arial,steet,non-word,Sure not seen,1.0,not seen,starned,3670.0,8.207946941048617,23,difficult to read,27-05-2019 11:13
573,2,7,True,Non-designer,2,recognition,14,arial,matter,word,Probably not seen,1.0,not seen,material,3130.0,8.048788283534199,23,difficult to read,27-05-2019 11:13
574,2,7,True,Non-designer,2,recognition,15,arial,nodded,word,Sure seen,1.0,seen,nodded,1920.0,7.560080465021827,23,difficult to read,27-05-2019 11:13
575,2,7,True,Non-designer,2,recognition,16,arial,months,word,Sure seen,1.0,seen,months,1949.0,7.575071699507561,23,difficult to read,27-05-2019 11:13
576,2,8,True,Non-designer,1,lexical,1,arial,wationation,non-word,Sure non-word,1.0,,,8028.0,8.990690709916228,65,very easy to read,26-05-2019 21:40
577,2,8,True,Non-designer,1,lexical,2,arial,wetween,non-word,Sure non-word,1.0,,,5720.0,8.651724084373843,65,very easy to read,26-05-2019 21:40
578,2,8,True,Non-designer,1,lexical,3,arial,impreasive,non-word,Sure non-word,1.0,,,3640.0,8.199738960630786,65,very easy to read,26-05-2019 21:40
579,2,8,True,Non-designer,1,lexical,4,arial,darrity,non-word,Sure non-word,1.0,,,2793.0,7.934871565945177,65,very easy to read,26-05-2019 21:40
580,2,8,True,Non-designer,1,lexical,5,arial,approach,word,Sure word,1.0,,,2821.0,7.944846711001996,65,very easy to read,26-05-2019 21:40
581,2,8,True,Non-designer,1,lexical,6,arial,aroult,non-word,Probably non-word,1.0,,,2474.0,7.813591552952433,65,very easy to read,26-05-2019 21:40
582,2,8,True,Non-designer,1,lexical,7,arial,liked,word,Sure word,1.0,,,2490.0,7.820037989458753,65,very easy to read,26-05-2019 21:40
583,2,8,True,Non-designer,1,lexical,8,arial,behaviour,word,Sure word,1.0,,,2518.0,7.831220214604293,65,very easy to read,26-05-2019 21:40
584,2,8,True,Non-designer,1,lexical,9,arial,explanented,non-word,Probably non-word,1.0,,,4877.0,8.492285555710053,65,very easy to read,26-05-2019 21:40
585,2,8,True,Non-designer,1,lexical,10,arial,health,word,Sure word,1.0,,,2123.0,7.660585461703256,65,very easy to read,26-05-2019 21:40
586,2,8,True,Non-designer,1,lexical,11,arial,grandials,non-word,Probably word,0.0,,,5016.0,8.520388082312756,65,very easy to read,26-05-2019 21:40
587,2,8,True,Non-designer,1,lexical,12,arial,shook,word,Sure word,1.0,,,2510.0,7.828038032125829,65,very easy to read,26-05-2019 21:40
588,2,8,True,Non-designer,1,lexical,13,arial,tempriation,non-word,Probably non-word,1.0,,,3813.0,8.246171559857563,65,very easy to read,26-05-2019 21:40
589,2,8,True,Non-designer,1,lexical,14,arial,starge,non-word,Probably non-word,1.0,,,2746.0,7.917900586327916,65,very easy to read,26-05-2019 21:40
590,2,8,True,Non-designer,1,lexical,15,arial,middle,word,Sure word,1.0,,,1989.0,7.5953872788539725,65,very easy to read,26-05-2019 21:40
591,2,8,True,Non-designer,1,lexical,16,arial,campaign,word,Sure word,1.0,,,2189.0,7.691200097522863,65,very easy to read,26-05-2019 21:40
592,2,8,True,Non-designer,1,lexical,17,arial,preakfase,non-word,Sure non-word,1.0,,,3521.0,8.166500319155052,65,very easy to read,26-05-2019 21:40
593,2,8,True,Non-designer,1,lexical,18,arial,light,word,Sure word,1.0,,,1595.0,7.374629015218945,65,very easy to read,26-05-2019 21:40
594,2,8,True,Non-designer,1,lexical,19,arial,leading,word,Sure word,1.0,,,3262.0,8.09009578318096,65,very easy to read,26-05-2019 21:40
595,2,8,True,Non-designer,1,lexical,20,arial,department,word,Sure word,1.0,,,1977.0,7.589335823170617,65,very easy to read,26-05-2019 21:40
596,2,8,True,Non-designer,1,recognition,1,sansforgetica,leading,word,Sure seen,1.0,seen,leading,5088.0,8.534640105019959,65,very easy to read,26-05-2019 21:40
597,2,8,True,Non-designer,1,recognition,2,sansforgetica,might,word,Sure not seen,1.0,not seen,middle,3422.0,8.137980454452139,65,very easy to read,26-05-2019 21:40
598,2,8,True,Non-designer,1,recognition,3,sansforgetica,aroult,non-word,Sure seen,1.0,seen,aroult,2278.0,7.731053144007127,65,very easy to read,26-05-2019 21:40
599,2,8,True,Non-designer,1,recognition,4,sansforgetica,liked,word,Sure seen,1.0,seen,liked,1886.0,7.542213463193403,65,very easy to read,26-05-2019 21:40
600,2,8,True,Non-designer,1,recognition,5,sansforgetica,whaiming,non-word,Probably not seen,1.0,not seen,wetween,4238.0,8.351846738828245,65,very easy to read,26-05-2019 21:40
601,2,8,True,Non-designer,1,recognition,6,sansforgetica,daymerly,non-word,Sure not seen,1.0,not seen,darrity,2080.0,7.640123172695364,65,very easy to read,26-05-2019 21:40
602,2,8,True,Non-designer,1,recognition,7,sansforgetica,tempriation,non-word,Sure seen,1.0,seen,tempriation,2057.0,7.6290038896529575,65,very easy to read,26-05-2019 21:40
603,2,8,True,Non-designer,1,recognition,8,sansforgetica,described,word,Sure not seen,1.0,not seen,department,2135.0,7.666221925662725,65,very easy to read,26-05-2019 21:40
604,2,8,True,Non-designer,1,recognition,9,sansforgetica,behaviour,word,Sure seen,1.0,seen,behaviour,1764.0,7.475339236566737,65,very easy to read,26-05-2019 21:40
605,2,8,True,Non-designer,1,recognition,10,sansforgetica,explitition,non-word,Sure seen,0.0,not seen,explanented,2440.0,7.799753318287247,65,very easy to read,26-05-2019 21:40
606,2,8,True,Non-designer,1,recognition,11,sansforgetica,granspors,non-word,Sure not seen,1.0,not seen,grandials,2140.0,7.668561108015897,65,very easy to read,26-05-2019 21:40
607,2,8,True,Non-designer,1,recognition,12,sansforgetica,starge,non-word,Sure seen,1.0,seen,starge,1995.0,7.598399329323964,65,very easy to read,26-05-2019 21:40
608,2,8,True,Non-designer,1,recognition,13,sansforgetica,wationation,non-word,Sure seen,1.0,seen,wationation,1829.0,7.511524648390866,65,very easy to read,26-05-2019 21:40
609,2,8,True,Non-designer,1,recognition,14,sansforgetica,health,word,Sure seen,1.0,seen,health,1968.0,7.584773077612199,65,very easy to read,26-05-2019 21:40
610,2,8,True,Non-designer,1,recognition,15,sansforgetica,library,word,Sure not seen,1.0,not seen,light,2076.0,7.638198244285779,65,very easy to read,26-05-2019 21:40
611,2,8,True,Non-designer,1,recognition,16,sansforgetica,cancer,word,Sure not seen,1.0,not seen,campaign,1635.0,7.399398083331354,65,very easy to read,26-05-2019 21:40
612,2,8,True,Non-designer,2,lexical,1,sansforgetica,impression,word,Sure word,1.0,,,6179.0,8.72891172506098,70,very easy to read,26-05-2019 21:40
613,2,8,True,Non-designer,2,lexical,2,sansforgetica,foreass,non-word,Probably non-word,1.0,,,7652.0,8.942722330560143,70,very easy to read,26-05-2019 21:40
614,2,8,True,Non-designer,2,lexical,3,sansforgetica,spent,word,Sure word,1.0,,,1785.0,7.487173694213739,70,very easy to read,26-05-2019 21:40
615,2,8,True,Non-designer,2,lexical,4,sansforgetica,apponstedly,non-word,Sure non-word,1.0,,,4813.0,8.47907586930311,70,very easy to read,26-05-2019 21:40
616,2,8,True,Non-designer,2,lexical,5,sansforgetica,feelings,word,Sure word,1.0,,,2164.0,7.679713639966372,70,very easy to read,26-05-2019 21:40
617,2,8,True,Non-designer,2,lexical,6,sansforgetica,aniond,non-word,Probably non-word,1.0,,,3271.0,8.092851027538384,70,very easy to read,26-05-2019 21:40
618,2,8,True,Non-designer,2,lexical,7,sansforgetica,claim,word,Sure word,1.0,,,1795.0,7.492760300922379,70,very easy to read,26-05-2019 21:40
619,2,8,True,Non-designer,2,lexical,8,sansforgetica,compritable,non-word,Probably non-word,1.0,,,5462.0,8.60557030203365,70,very easy to read,26-05-2019 21:40
620,2,8,True,Non-designer,2,lexical,9,sansforgetica,opened,word,Sure word,1.0,,,1956.0,7.578656850594762,70,very easy to read,26-05-2019 21:40
621,2,8,True,Non-designer,2,lexical,10,sansforgetica,happening,word,Sure word,1.0,,,1541.0,7.340186835320115,70,very easy to read,26-05-2019 21:40
622,2,8,True,Non-designer,2,lexical,11,sansforgetica,restratians,non-word,Probably non-word,1.0,,,5450.0,8.60337088765729,70,very easy to read,26-05-2019 21:40
623,2,8,True,Non-designer,2,lexical,12,sansforgetica,traditional,word,Sure word,1.0,,,1868.0,7.532623618788788,70,very easy to read,26-05-2019 21:40
624,2,8,True,Non-designer,2,lexical,13,sansforgetica,pleasure,word,Sure word,1.0,,,1681.0,7.427144133408616,70,very easy to read,26-05-2019 21:40
625,2,8,True,Non-designer,2,lexical,14,sansforgetica,legravement,non-word,Sure non-word,1.0,,,3513.0,8.164225652265827,70,very easy to read,26-05-2019 21:40
626,2,8,True,Non-designer,2,lexical,15,sansforgetica,dinded,non-word,Probably non-word,1.0,,,4065.0,8.310169021981912,70,very easy to read,26-05-2019 21:40
627,2,8,True,Non-designer,2,lexical,16,sansforgetica,commission,word,Sure word,1.0,,,2245.0,7.716460800176355,70,very easy to read,26-05-2019 21:40
628,2,8,True,Non-designer,2,lexical,17,sansforgetica,adjuntives,non-word,Probably non-word,1.0,,,4767.0,8.469472455204826,70,very easy to read,26-05-2019 21:40
629,2,8,True,Non-designer,2,lexical,18,sansforgetica,gallowned,non-word,Probably non-word,1.0,,,3789.0,8.239857411018601,70,very easy to read,26-05-2019 21:40
630,2,8,True,Non-designer,2,lexical,19,sansforgetica,freasional,non-word,Probably non-word,1.0,,,2125.0,7.661527081358517,70,very easy to read,26-05-2019 21:40
631,2,8,True,Non-designer,2,lexical,20,sansforgetica,leader,word,Sure word,1.0,,,1674.0,7.422971251049421,70,very easy to read,26-05-2019 21:40
632,2,8,True,Non-designer,2,recognition,1,arial,compritable,non-word,Sure seen,1.0,seen,compritable,7115.0,8.869960510523953,70,very easy to read,26-05-2019 21:40
633,2,8,True,Non-designer,2,recognition,2,arial,anotter,non-word,Sure not seen,1.0,not seen,aniond,2855.0,7.956827122090111,70,very easy to read,26-05-2019 21:40
634,2,8,True,Non-designer,2,recognition,3,arial,apponstedly,non-word,Sure seen,1.0,seen,apponstedly,2123.0,7.660585461703256,70,very easy to read,26-05-2019 21:40
635,2,8,True,Non-designer,2,recognition,4,arial,restruction,non-word,Sure not seen,1.0,not seen,restratians,3256.0,8.08825472712243,70,very easy to read,26-05-2019 21:40
636,2,8,True,Non-designer,2,recognition,5,arial,commission,word,Sure seen,1.0,seen,commission,1456.0,7.283448228756631,70,very easy to read,26-05-2019 21:40
637,2,8,True,Non-designer,2,recognition,6,arial,included,word,Sure seen,0.0,not seen,impression,2276.0,7.730174795246222,70,very easy to read,26-05-2019 21:40
638,2,8,True,Non-designer,2,recognition,7,arial,legravement,non-word,Sure seen,1.0,seen,legravement,1709.0,7.443663683115591,70,very easy to read,26-05-2019 21:40
639,2,8,True,Non-designer,2,recognition,8,arial,foreass,non-word,Sure seen,1.0,seen,foreass,1602.0,7.379008127628304,70,very easy to read,26-05-2019 21:40
640,2,8,True,Non-designer,2,recognition,9,arial,spirit,word,Sure not seen,1.0,not seen,spent,1786.0,7.487733761436444,70,very easy to read,26-05-2019 21:40
641,2,8,True,Non-designer,2,recognition,10,arial,frighboure,non-word,Sure not seen,1.0,not seen,freasional,2267.0,7.726212650507529,70,very easy to read,26-05-2019 21:40
642,2,8,True,Non-designer,2,recognition,11,arial,garance,non-word,Sure not seen,1.0,not seen,gallowned,1634.0,7.3987862754199485,70,very easy to read,26-05-2019 21:40
643,2,8,True,Non-designer,2,recognition,12,arial,happening,word,Sure seen,1.0,seen,happening,1485.0,7.3031700512368,70,very easy to read,26-05-2019 21:40
644,2,8,True,Non-designer,2,recognition,13,arial,leader,word,Sure seen,1.0,seen,leader,1475.0,7.29641326877392,70,very easy to read,26-05-2019 21:40
645,2,8,True,Non-designer,2,recognition,14,arial,pleasure,word,Sure seen,1.0,seen,pleasure,1842.0,7.518607216815252,70,very easy to read,26-05-2019 21:40
646,2,8,True,Non-designer,2,recognition,15,arial,opening,word,Sure not seen,1.0,not seen,opened,1483.0,7.301822342137932,70,very easy to read,26-05-2019 21:40
647,2,8,True,Non-designer,2,recognition,16,arial,traffic,word,Sure not seen,1.0,not seen,traditional,1495.0,7.3098814858247865,70,very easy to read,26-05-2019 21:40
648,2,9,True,Non-designer,1,lexical,1,arial,possiols,non-word,Probably non-word,1.0,,,6965.0,8.848652886213905,64,very easy to read,26-05-2019 21:07
649,2,9,True,Non-designer,1,lexical,2,arial,disculates,non-word,Probably word,0.0,,,6518.0,8.782322859397507,64,very easy to read,26-05-2019 21:07
650,2,9,True,Non-designer,1,lexical,3,arial,national,word,Sure word,1.0,,,4087.0,8.315566483564277,64,very easy to read,26-05-2019 21:07
651,2,9,True,Non-designer,1,lexical,4,arial,welfare,word,Sure word,1.0,,,3230.0,8.080237416216702,64,very easy to read,26-05-2019 21:07
652,2,9,True,Non-designer,1,lexical,5,arial,furning,non-word,Probably non-word,1.0,,,6826.0,8.828494129466652,64,very easy to read,26-05-2019 21:07
653,2,9,True,Non-designer,1,lexical,6,arial,brummitic,non-word,Probably non-word,1.0,,,5687.0,8.645938147306799,64,very easy to read,26-05-2019 21:07
654,2,9,True,Non-designer,1,lexical,7,arial,extremely,word,Sure word,1.0,,,3982.0,8.289539484624141,64,very easy to read,26-05-2019 21:07
655,2,9,True,Non-designer,1,lexical,8,arial,hanposed,non-word,Probably non-word,1.0,,,6402.0,8.764365720529808,64,very easy to read,26-05-2019 21:07
656,2,9,True,Non-designer,1,lexical,9,arial,advice,word,Sure word,1.0,,,3364.0,8.120886021092838,64,very easy to read,26-05-2019 21:07
657,2,9,True,Non-designer,1,lexical,10,arial,gromish,non-word,Probably word,0.0,,,7243.0,8.887790764195326,64,very easy to read,26-05-2019 21:07
