,Study ID,Participant ID,Fluent,Designer,Test ID,Test type,Trial ID,Font,Sample,Category,Response,Correct,Seen,Foil,Response time,JoM,JoL,Date
0,2,0,True,Other designer,1,lexical,1,sansforgetica,surface,word,Sure word,1.0,,,5205,85,very easy to read,01-05-2019 16:40
1,2,0,True,Other designer,1,lexical,2,sansforgetica,congressary,non-word,Probably word,0.0,,,18640,85,very easy to read,01-05-2019 16:40
2,2,0,True,Other designer,1,lexical,3,sansforgetica,arranged,word,Sure word,1.0,,,3687,85,very easy to read,01-05-2019 16:40
3,2,0,True,Other designer,1,lexical,4,sansforgetica,voiled,non-word,Sure word,0.0,,,4169,85,very easy to read,01-05-2019 16:40
4,2,0,True,Other designer,1,lexical,5,sansforgetica,struck,word,Sure word,1.0,,,1756,85,very easy to read,01-05-2019 16:40
5,2,0,True,Other designer,1,lexical,6,sansforgetica,rechnolles,non-word,Probably word,0.0,,,3856,85,very easy to read,01-05-2019 16:40
6,2,0,True,Other designer,1,lexical,7,sansforgetica,forest,word,Sure word,1.0,,,1492,85,very easy to read,01-05-2019 16:40
7,2,0,True,Other designer,1,lexical,8,sansforgetica,notice,word,Sure word,1.0,,,1584,85,very easy to read,01-05-2019 16:40
8,2,0,True,Other designer,1,lexical,9,sansforgetica,green,word,Sure word,1.0,,,1037,85,very easy to read,01-05-2019 16:40
9,2,0,True,Other designer,1,lexical,10,sansforgetica,satched,non-word,Probably word,0.0,,,3619,85,very easy to read,01-05-2019 16:40
10,2,0,True,Other designer,1,lexical,11,sansforgetica,undeep,non-word,Probably word,0.0,,,2996,85,very easy to read,01-05-2019 16:40
11,2,0,True,Other designer,1,lexical,12,sansforgetica,travel,word,Sure word,1.0,,,971,85,very easy to read,01-05-2019 16:40
12,2,0,True,Other designer,1,lexical,13,sansforgetica,peace,word,Sure word,1.0,,,960,85,very easy to read,01-05-2019 16:40
13,2,0,True,Other designer,1,lexical,14,sansforgetica,preaped,non-word,Probably non-word,1.0,,,4893,85,very easy to read,01-05-2019 16:40
14,2,0,True,Other designer,1,lexical,15,sansforgetica,weight,word,Sure word,1.0,,,2125,85,very easy to read,01-05-2019 16:40
15,2,0,True,Other designer,1,lexical,16,sansforgetica,velerion,non-word,Probably word,0.0,,,1509,85,very easy to read,01-05-2019 16:40
16,2,0,True,Other designer,1,lexical,17,sansforgetica,looks,word,Sure word,1.0,,,1356,85,very easy to read,01-05-2019 16:40
17,2,0,True,Other designer,1,lexical,18,sansforgetica,agaim,non-word,Sure non-word,1.0,,,5916,85,very easy to read,01-05-2019 16:40
18,2,0,True,Other designer,1,lexical,19,sansforgetica,favies,non-word,Probably word,0.0,,,5216,85,very easy to read,01-05-2019 16:40
19,2,0,True,Other designer,1,lexical,20,sansforgetica,thurning,non-word,Probably non-word,1.0,,,5464,85,very easy to read,01-05-2019 16:40
20,2,0,True,Other designer,1,recognition,1,arial,thurning,non-word,Sure seen,1.0,seen,thurning,7292,85,very easy to read,01-05-2019 16:40
21,2,0,True,Other designer,1,recognition,2,arial,weight,word,Sure seen,1.0,seen,weight,948,85,very easy to read,01-05-2019 16:40
22,2,0,True,Other designer,1,recognition,3,arial,voins,non-word,Probably seen,0.0,not seen,voiled,1708,85,very easy to read,01-05-2019 16:40
23,2,0,True,Other designer,1,recognition,4,arial,forest,word,Sure seen,1.0,seen,forest,936,85,very easy to read,01-05-2019 16:40
24,2,0,True,Other designer,1,recognition,5,arial,underation,non-word,Probably not seen,1.0,not seen,undeep,3317,85,very easy to read,01-05-2019 16:40
25,2,0,True,Other designer,1,recognition,6,arial,people,word,Probably not seen,1.0,not seen,peace,5318,85,very easy to read,01-05-2019 16:40
26,2,0,True,Other designer,1,recognition,7,arial,venerweared,non-word,Probably not seen,1.0,not seen,velerion,2457,85,very easy to read,01-05-2019 16:40
27,2,0,True,Other designer,1,recognition,8,arial,loved,word,Probably not seen,1.0,not seen,looks,2279,85,very easy to read,01-05-2019 16:40
28,2,0,True,Other designer,1,recognition,9,arial,structure,word,Probably not seen,1.0,not seen,struck,6834,85,very easy to read,01-05-2019 16:40
29,2,0,True,Other designer,1,recognition,10,arial,ground,word,Probably not seen,1.0,not seen,green,1882,85,very easy to read,01-05-2019 16:40
30,2,0,True,Other designer,1,recognition,11,arial,travel,word,Sure seen,1.0,seen,travel,1296,85,very easy to read,01-05-2019 16:40
31,2,0,True,Other designer,1,recognition,12,arial,favies,non-word,Sure seen,1.0,seen,favies,1316,85,very easy to read,01-05-2019 16:40
32,2,0,True,Other designer,1,recognition,13,arial,sategontly,non-word,Probably not seen,1.0,not seen,satched,2252,85,very easy to read,01-05-2019 16:40
33,2,0,True,Other designer,1,recognition,14,arial,surface,word,Sure seen,1.0,seen,surface,1317,85,very easy to read,01-05-2019 16:40
34,2,0,True,Other designer,1,recognition,15,arial,congressary,non-word,Sure seen,1.0,seen,congressary,1404,85,very easy to read,01-05-2019 16:40
35,2,0,True,Other designer,1,recognition,16,arial,preaped,non-word,Probably seen,1.0,seen,preaped,7332,85,very easy to read,01-05-2019 16:40
36,2,0,True,Other designer,2,lexical,1,arial,financial,word,Sure word,1.0,,,13169,75,very easy to read,01-05-2019 16:40
37,2,0,True,Other designer,2,lexical,2,arial,norectly,non-word,Probably word,0.0,,,1533,75,very easy to read,01-05-2019 16:40
38,2,0,True,Other designer,2,lexical,3,arial,chief,word,Sure word,1.0,,,1571,75,very easy to read,01-05-2019 16:40
39,2,0,True,Other designer,2,lexical,4,arial,fashing,non-word,Probably non-word,1.0,,,2688,75,very easy to read,01-05-2019 16:40
40,2,0,True,Other designer,2,lexical,5,arial,listening,word,Sure word,1.0,,,1584,75,very easy to read,01-05-2019 16:40
41,2,0,True,Other designer,2,lexical,6,arial,leauty,non-word,Probably non-word,1.0,,,1549,75,very easy to read,01-05-2019 16:40
42,2,0,True,Other designer,2,lexical,7,arial,silver,word,Sure word,1.0,,,1193,75,very easy to read,01-05-2019 16:40
43,2,0,True,Other designer,2,lexical,8,arial,perman,non-word,Probably word,0.0,,,2907,75,very easy to read,01-05-2019 16:40
44,2,0,True,Other designer,2,lexical,9,arial,cammuning,non-word,Probably non-word,1.0,,,1688,75,very easy to read,01-05-2019 16:40
45,2,0,True,Other designer,2,lexical,10,arial,senal,non-word,Sure non-word,1.0,,,4609,75,very easy to read,01-05-2019 16:40
46,2,0,True,Other designer,2,lexical,11,arial,contact,word,Sure word,1.0,,,1675,75,very easy to read,01-05-2019 16:40
47,2,0,True,Other designer,2,lexical,12,arial,object,word,Sure word,1.0,,,1208,75,very easy to read,01-05-2019 16:40
48,2,0,True,Other designer,2,lexical,13,arial,somewing,non-word,Probably word,0.0,,,3969,75,very easy to read,01-05-2019 16:40
49,2,0,True,Other designer,2,lexical,14,arial,discussion,word,Sure word,1.0,,,1435,75,very easy to read,01-05-2019 16:40
50,2,0,True,Other designer,2,lexical,15,arial,anywhere,word,Sure word,1.0,,,2857,75,very easy to read,01-05-2019 16:40
51,2,0,True,Other designer,2,lexical,16,arial,clearly,word,Sure word,1.0,,,860,75,very easy to read,01-05-2019 16:40
52,2,0,True,Other designer,2,lexical,17,arial,growth,word,Sure word,1.0,,,735,75,very easy to read,01-05-2019 16:40
53,2,0,True,Other designer,2,lexical,18,arial,metween,non-word,Sure non-word,1.0,,,3325,75,very easy to read,01-05-2019 16:40
54,2,0,True,Other designer,2,lexical,19,arial,thouggle,non-word,Probably non-word,1.0,,,1991,75,very easy to read,01-05-2019 16:40
55,2,0,True,Other designer,2,lexical,20,arial,cenger,non-word,Sure non-word,1.0,,,1856,75,very easy to read,01-05-2019 16:40
56,2,0,True,Other designer,2,recognition,1,sansforgetica,norectly,non-word,Probably seen,1.0,seen,norectly,5995,75,very easy to read,01-05-2019 16:40
57,2,0,True,Other designer,2,recognition,2,sansforgetica,little,word,Probably not seen,1.0,not seen,listening,6332,75,very easy to read,01-05-2019 16:40
58,2,0,True,Other designer,2,recognition,3,sansforgetica,leceived,non-word,Sure not seen,1.0,not seen,leauty,1960,75,very easy to read,01-05-2019 16:40
59,2,0,True,Other designer,2,recognition,4,sansforgetica,clearly,word,Sure seen,1.0,seen,clearly,1803,75,very easy to read,01-05-2019 16:40
60,2,0,True,Other designer,2,recognition,5,sansforgetica,cenism,non-word,Probably not seen,1.0,not seen,cenger,2056,75,very easy to read,01-05-2019 16:40
61,2,0,True,Other designer,2,recognition,6,sansforgetica,growth,word,Sure seen,1.0,seen,growth,1084,75,very easy to read,01-05-2019 16:40
62,2,0,True,Other designer,2,recognition,7,sansforgetica,similar,word,Sure seen,0.0,not seen,silver,1464,75,very easy to read,01-05-2019 16:40
63,2,0,True,Other designer,2,recognition,8,sansforgetica,somewing,non-word,Sure seen,1.0,seen,somewing,1387,75,very easy to read,01-05-2019 16:40
64,2,0,True,Other designer,2,recognition,9,sansforgetica,disease,word,Probably seen,0.0,not seen,discussion,2136,75,very easy to read,01-05-2019 16:40
65,2,0,True,Other designer,2,recognition,10,sansforgetica,faterb,non-word,Probably not seen,1.0,not seen,fashing,1509,75,very easy to read,01-05-2019 16:40
66,2,0,True,Other designer,2,recognition,11,sansforgetica,anywhere,word,Sure seen,1.0,seen,anywhere,1827,75,very easy to read,01-05-2019 16:40
67,2,0,True,Other designer,2,recognition,12,sansforgetica,obvious,word,Sure seen,0.0,not seen,object,2616,75,very easy to read,01-05-2019 16:40
68,2,0,True,Other designer,2,recognition,13,sansforgetica,metween,non-word,Sure seen,1.0,seen,metween,3324,75,very easy to read,01-05-2019 16:40
69,2,0,True,Other designer,2,recognition,14,sansforgetica,financial,word,Sure seen,1.0,seen,financial,1029,75,very easy to read,01-05-2019 16:40
70,2,0,True,Other designer,2,recognition,15,sansforgetica,cammuning,non-word,Probably not seen,0.0,seen,cammuning,1739,75,very easy to read,01-05-2019 16:40
71,2,0,True,Other designer,2,recognition,16,sansforgetica,thount,non-word,Probably not seen,1.0,not seen,thouggle,1357,75,very easy to read,01-05-2019 16:40
72,2,72,True,Non-designer,1,lexical,1,arial,engistriate,non-word,Sure non-word,1.0,,,2384,70,very easy to read,01-05-2019 10:49
73,2,72,True,Non-designer,1,lexical,2,arial,three,word,Sure word,1.0,,,1980,70,very easy to read,01-05-2019 10:49
74,2,72,True,Non-designer,1,lexical,3,arial,acadence,non-word,Probably non-word,1.0,,,3524,70,very easy to read,01-05-2019 10:49
75,2,72,True,Non-designer,1,lexical,4,arial,hovelently,non-word,Probably non-word,1.0,,,3630,70,very easy to read,01-05-2019 10:49
76,2,72,True,Non-designer,1,lexical,5,arial,hontever,non-word,Sure non-word,1.0,,,1746,70,very easy to read,01-05-2019 10:49
77,2,72,True,Non-designer,1,lexical,6,arial,ground,word,Sure word,1.0,,,1815,70,very easy to read,01-05-2019 10:49
78,2,72,True,Non-designer,1,lexical,7,arial,loote,non-word,Sure non-word,1.0,,,1988,70,very easy to read,01-05-2019 10:49
79,2,72,True,Non-designer,1,lexical,8,arial,otherwise,word,Sure word,1.0,,,1892,70,very easy to read,01-05-2019 10:49
80,2,72,True,Non-designer,1,lexical,9,arial,apponstedly,non-word,Sure non-word,1.0,,,3362,70,very easy to read,01-05-2019 10:49
81,2,72,True,Non-designer,1,lexical,10,arial,methods,word,Sure word,1.0,,,1663,70,very easy to read,01-05-2019 10:49
82,2,72,True,Non-designer,1,lexical,11,arial,fashion,word,Sure word,1.0,,,1834,70,very easy to read,01-05-2019 10:49
83,2,72,True,Non-designer,1,lexical,12,arial,material,word,Sure word,1.0,,,1148,70,very easy to read,01-05-2019 10:49
84,2,72,True,Non-designer,1,lexical,13,arial,appeal,word,Sure word,1.0,,,1290,70,very easy to read,01-05-2019 10:49
85,2,72,True,Non-designer,1,lexical,14,arial,gatisient,non-word,Sure non-word,1.0,,,2719,70,very easy to read,01-05-2019 10:49
86,2,72,True,Non-designer,1,lexical,15,arial,leasumated,non-word,Probably non-word,1.0,,,3451,70,very easy to read,01-05-2019 10:49
87,2,72,True,Non-designer,1,lexical,16,arial,commalists,non-word,Probably non-word,1.0,,,3049,70,very easy to read,01-05-2019 10:49
88,2,72,True,Non-designer,1,lexical,17,arial,teaching,word,Sure word,1.0,,,1559,70,very easy to read,01-05-2019 10:49
89,2,72,True,Non-designer,1,lexical,18,arial,vegitorken,non-word,Sure non-word,1.0,,,2281,70,very easy to read,01-05-2019 10:49
90,2,72,True,Non-designer,1,lexical,19,arial,parliament,word,Sure word,1.0,,,1896,70,very easy to read,01-05-2019 10:49
91,2,72,True,Non-designer,1,lexical,20,arial,never,word,Sure word,1.0,,,1402,70,very easy to read,01-05-2019 10:49
92,2,72,True,Non-designer,1,recognition,1,sansforgetica,through,word,Probably seen,0.0,not seen,three,5967,70,very easy to read,01-05-2019 10:49
93,2,72,True,Non-designer,1,recognition,2,sansforgetica,appeal,word,Sure seen,1.0,seen,appeal,1771,70,very easy to read,01-05-2019 10:49
94,2,72,True,Non-designer,1,recognition,3,sansforgetica,particular,word,Probably not seen,1.0,not seen,parliament,4484,70,very easy to read,01-05-2019 10:49
95,2,72,True,Non-designer,1,recognition,4,sansforgetica,ground,word,Sure seen,1.0,seen,ground,1415,70,very easy to read,01-05-2019 10:49
96,2,72,True,Non-designer,1,recognition,5,sansforgetica,lourced,non-word,Sure seen,0.0,not seen,loote,2986,70,very easy to read,01-05-2019 10:49
97,2,72,True,Non-designer,1,recognition,6,sansforgetica,matter,word,Sure seen,0.0,not seen,material,2008,70,very easy to read,01-05-2019 10:49
98,2,72,True,Non-designer,1,recognition,7,sansforgetica,vegitorken,non-word,Sure seen,1.0,seen,vegitorken,1794,70,very easy to read,01-05-2019 10:49
99,2,72,True,Non-designer,1,recognition,8,sansforgetica,humberical,non-word,Sure not seen,1.0,not seen,hovelently,3235,70,very easy to read,01-05-2019 10:49
100,2,72,True,Non-designer,1,recognition,9,sansforgetica,hontever,non-word,Sure not seen,0.0,seen,hontever,2397,70,very easy to read,01-05-2019 10:49
101,2,72,True,Non-designer,1,recognition,10,sansforgetica,father,word,Sure not seen,1.0,not seen,fashion,1970,70,very easy to read,01-05-2019 10:49
102,2,72,True,Non-designer,1,recognition,11,sansforgetica,never,word,Sure seen,1.0,seen,never,1329,70,very easy to read,01-05-2019 10:49
103,2,72,True,Non-designer,1,recognition,12,sansforgetica,leasumated,non-word,Sure seen,1.0,seen,leasumated,3288,70,very easy to read,01-05-2019 10:49
104,2,72,True,Non-designer,1,recognition,13,sansforgetica,engistriate,non-word,Sure seen,1.0,seen,engistriate,2332,70,very easy to read,01-05-2019 10:49
105,2,72,True,Non-designer,1,recognition,14,sansforgetica,commendous,non-word,Probably not seen,1.0,not seen,commalists,3067,70,very easy to read,01-05-2019 10:49
106,2,72,True,Non-designer,1,recognition,15,sansforgetica,otherwise,word,Sure seen,1.0,seen,otherwise,3665,70,very easy to read,01-05-2019 10:49
107,2,72,True,Non-designer,1,recognition,16,sansforgetica,gatted,non-word,Probably not seen,1.0,not seen,gatisient,2612,70,very easy to read,01-05-2019 10:49
108,2,72,True,Non-designer,2,lexical,1,sansforgetica,miregiated,non-word,Probably non-word,1.0,,,3495,50,difficult to read,01-05-2019 10:49
109,2,72,True,Non-designer,2,lexical,2,sansforgetica,fruit,word,Sure word,1.0,,,2198,50,difficult to read,01-05-2019 10:49
110,2,72,True,Non-designer,2,lexical,3,sansforgetica,contem,non-word,Probably non-word,1.0,,,2270,50,difficult to read,01-05-2019 10:49
111,2,72,True,Non-designer,2,lexical,4,sansforgetica,inderected,non-word,Sure word,0.0,,,7253,50,difficult to read,01-05-2019 10:49
112,2,72,True,Non-designer,2,lexical,5,sansforgetica,reported,word,Sure word,1.0,,,1268,50,difficult to read,01-05-2019 10:49
113,2,72,True,Non-designer,2,lexical,6,sansforgetica,gighting,non-word,Probably non-word,1.0,,,2883,50,difficult to read,01-05-2019 10:49
114,2,72,True,Non-designer,2,lexical,7,sansforgetica,specket,non-word,Probably non-word,1.0,,,2705,50,difficult to read,01-05-2019 10:49
115,2,72,True,Non-designer,2,lexical,8,sansforgetica,instead,word,Sure word,1.0,,,1503,50,difficult to read,01-05-2019 10:49
116,2,72,True,Non-designer,2,lexical,9,sansforgetica,devulaing,non-word,Probably non-word,1.0,,,4092,50,difficult to read,01-05-2019 10:49
117,2,72,True,Non-designer,2,lexical,10,sansforgetica,council,word,Sure word,1.0,,,1754,50,difficult to read,01-05-2019 10:49
118,2,72,True,Non-designer,2,lexical,11,sansforgetica,despite,word,Sure word,1.0,,,1357,50,difficult to read,01-05-2019 10:49
119,2,72,True,Non-designer,2,lexical,12,sansforgetica,drojects,non-word,Probably non-word,1.0,,,4959,50,difficult to read,01-05-2019 10:49
120,2,72,True,Non-designer,2,lexical,13,sansforgetica,particular,word,Sure word,1.0,,,1702,50,difficult to read,01-05-2019 10:49
121,2,72,True,Non-designer,2,lexical,14,sansforgetica,after,word,Sure word,1.0,,,1269,50,difficult to read,01-05-2019 10:49
122,2,72,True,Non-designer,2,lexical,15,sansforgetica,nodief,non-word,Sure non-word,1.0,,,3105,50,difficult to read,01-05-2019 10:49
123,2,72,True,Non-designer,2,lexical,16,sansforgetica,famous,word,Sure word,1.0,,,1882,50,difficult to read,01-05-2019 10:49
124,2,72,True,Non-designer,2,lexical,17,sansforgetica,vegimasion,non-word,Probably non-word,1.0,,,3202,50,difficult to read,01-05-2019 10:49
125,2,72,True,Non-designer,2,lexical,18,sansforgetica,uncregately,non-word,Sure non-word,1.0,,,4171,50,difficult to read,01-05-2019 10:49
126,2,72,True,Non-designer,2,lexical,19,sansforgetica,something,word,Sure word,1.0,,,1875,50,difficult to read,01-05-2019 10:49
127,2,72,True,Non-designer,2,lexical,20,sansforgetica,struggle,word,Sure word,1.0,,,1941,50,difficult to read,01-05-2019 10:49
128,2,72,True,Non-designer,2,recognition,1,arial,dictrised,non-word,Probably not seen,1.0,not seen,devulaing,4332,50,difficult to read,01-05-2019 10:49
129,2,72,True,Non-designer,2,recognition,2,arial,miregiated,non-word,Sure seen,1.0,seen,miregiated,2519,50,difficult to read,01-05-2019 10:49
130,2,72,True,Non-designer,2,recognition,3,arial,durprology,non-word,Probably not seen,1.0,not seen,drojects,2993,50,difficult to read,01-05-2019 10:49
131,2,72,True,Non-designer,2,recognition,4,arial,famous,word,Sure seen,1.0,seen,famous,1576,50,difficult to read,01-05-2019 10:49
132,2,72,True,Non-designer,2,recognition,5,arial,fully,word,Probably not seen,1.0,not seen,fruit,2176,50,difficult to read,01-05-2019 10:49
133,2,72,True,Non-designer,2,recognition,6,arial,uncregately,non-word,Sure seen,1.0,seen,uncregately,2744,50,difficult to read,01-05-2019 10:49
134,2,72,True,Non-designer,2,recognition,7,arial,vegimasion,non-word,Sure seen,1.0,seen,vegimasion,1605,50,difficult to read,01-05-2019 10:49
135,2,72,True,Non-designer,2,recognition,8,arial,despite,word,Sure seen,1.0,seen,despite,1163,50,difficult to read,01-05-2019 10:49
136,2,72,True,Non-designer,2,recognition,9,arial,girayed,non-word,Sure seen,0.0,not seen,gighting,2077,50,difficult to read,01-05-2019 10:49
137,2,72,True,Non-designer,2,recognition,10,arial,sometimes,word,Probably not seen,1.0,not seen,something,2226,50,difficult to read,01-05-2019 10:49
138,2,72,True,Non-designer,2,recognition,11,arial,council,word,Sure seen,1.0,seen,council,1351,50,difficult to read,01-05-2019 10:49
139,2,72,True,Non-designer,2,recognition,12,arial,reported,word,Sure seen,1.0,seen,reported,1050,50,difficult to read,01-05-2019 10:49
140,2,72,True,Non-designer,2,recognition,13,arial,parties,word,Probably not seen,1.0,not seen,particular,2040,50,difficult to read,01-05-2019 10:49
141,2,72,True,Non-designer,2,recognition,14,arial,nodief,non-word,Sure seen,1.0,seen,nodief,1530,50,difficult to read,01-05-2019 10:49
142,2,72,True,Non-designer,2,recognition,15,arial,spectiation,non-word,Probably not seen,1.0,not seen,specket,1957,50,difficult to read,01-05-2019 10:49
143,2,72,True,Non-designer,2,recognition,16,arial,studies,word,Sure not seen,1.0,not seen,struggle,3429,50,difficult to read,01-05-2019 10:49
144,2,144,True,Graphic designer,1,lexical,1,arial,totally,word,Sure word,1.0,,,1283,75,very easy to read,01-05-2019 10:45
145,2,144,True,Graphic designer,1,lexical,2,arial,received,word,Sure word,1.0,,,1047,75,very easy to read,01-05-2019 10:45
146,2,144,True,Graphic designer,1,lexical,3,arial,former,word,Sure word,1.0,,,1023,75,very easy to read,01-05-2019 10:45
147,2,144,True,Graphic designer,1,lexical,4,arial,second,word,Sure word,1.0,,,890,75,very easy to read,01-05-2019 10:45
148,2,144,True,Graphic designer,1,lexical,5,arial,considenon,non-word,Probably non-word,1.0,,,3037,75,very easy to read,01-05-2019 10:45
149,2,144,True,Graphic designer,1,lexical,6,arial,insumn,non-word,Sure non-word,1.0,,,1564,75,very easy to read,01-05-2019 10:45
150,2,144,True,Graphic designer,1,lexical,7,arial,designed,word,Sure word,1.0,,,1385,75,very easy to read,01-05-2019 10:45
151,2,144,True,Graphic designer,1,lexical,8,arial,strashism,non-word,Probably non-word,1.0,,,3848,75,very easy to read,01-05-2019 10:45
152,2,144,True,Graphic designer,1,lexical,9,arial,disappelmen,non-word,Sure non-word,1.0,,,2372,75,very easy to read,01-05-2019 10:45
153,2,144,True,Graphic designer,1,lexical,10,arial,regular,word,Sure word,1.0,,,1451,75,very easy to read,01-05-2019 10:45
154,2,144,True,Graphic designer,1,lexical,11,arial,indertunity,non-word,Sure non-word,1.0,,,6255,75,very easy to read,01-05-2019 10:45
155,2,144,True,Graphic designer,1,lexical,12,arial,aggreciled,non-word,Probably word,0.0,,,3433,75,very easy to read,01-05-2019 10:45
156,2,144,True,Graphic designer,1,lexical,13,arial,remembered,word,Sure word,1.0,,,1068,75,very easy to read,01-05-2019 10:45
157,2,144,True,Graphic designer,1,lexical,14,arial,compagency,non-word,Probably word,0.0,,,2103,75,very easy to read,01-05-2019 10:45
158,2,144,True,Graphic designer,1,lexical,15,arial,bought,word,Sure word,1.0,,,1361,75,very easy to read,01-05-2019 10:45
159,2,144,True,Graphic designer,1,lexical,16,arial,beautiful,word,Sure word,1.0,,,799,75,very easy to read,01-05-2019 10:45
160,2,144,True,Graphic designer,1,lexical,17,arial,autteuvrity,non-word,Sure non-word,1.0,,,3656,75,very easy to read,01-05-2019 10:45
161,2,144,True,Graphic designer,1,lexical,18,arial,costs,word,Sure word,1.0,,,1283,75,very easy to read,01-05-2019 10:45
162,2,144,True,Graphic designer,1,lexical,19,arial,genernoon,non-word,Probably non-word,1.0,,,2632,75,very easy to read,01-05-2019 10:45
163,2,144,True,Graphic designer,1,lexical,20,arial,disarruping,non-word,Sure non-word,1.0,,,2003,75,very easy to read,01-05-2019 10:45
164,2,144,True,Graphic designer,1,recognition,1,sansforgetica,could,word,Sure not seen,1.0,not seen,costs,6177,75,very easy to read,01-05-2019 10:45
165,2,144,True,Graphic designer,1,recognition,2,sansforgetica,genernoon,non-word,Sure seen,1.0,seen,genernoon,4702,75,very easy to read,01-05-2019 10:45
166,2,144,True,Graphic designer,1,recognition,3,sansforgetica,considere,non-word,Sure not seen,1.0,not seen,considenon,4792,75,very easy to read,01-05-2019 10:45
167,2,144,True,Graphic designer,1,recognition,4,sansforgetica,bound,word,Probably not seen,1.0,not seen,bought,2285,75,very easy to read,01-05-2019 10:45
168,2,144,True,Graphic designer,1,recognition,5,sansforgetica,recent,word,Sure not seen,1.0,not seen,received,1958,75,very easy to read,01-05-2019 10:45
169,2,144,True,Graphic designer,1,recognition,6,sansforgetica,auttlefites,non-word,Sure not seen,1.0,not seen,autteuvrity,2496,75,very easy to read,01-05-2019 10:45
170,2,144,True,Graphic designer,1,recognition,7,sansforgetica,indesphant,non-word,Sure not seen,1.0,not seen,indertunity,1946,75,very easy to read,01-05-2019 10:45
171,2,144,True,Graphic designer,1,recognition,8,sansforgetica,remembered,word,Probably seen,1.0,seen,remembered,2971,75,very easy to read,01-05-2019 10:45
172,2,144,True,Graphic designer,1,recognition,9,sansforgetica,beautiful,word,Sure seen,1.0,seen,beautiful,1136,75,very easy to read,01-05-2019 10:45
173,2,144,True,Graphic designer,1,recognition,10,sansforgetica,designed,word,Sure seen,1.0,seen,designed,1080,75,very easy to read,01-05-2019 10:45
174,2,144,True,Graphic designer,1,recognition,11,sansforgetica,disappelmen,non-word,Sure seen,1.0,seen,disappelmen,1767,75,very easy to read,01-05-2019 10:45
175,2,144,True,Graphic designer,1,recognition,12,sansforgetica,touch,word,Sure not seen,1.0,not seen,totally,1709,75,very easy to read,01-05-2019 10:45
176,2,144,True,Graphic designer,1,recognition,13,sansforgetica,strashism,non-word,Sure seen,1.0,seen,strashism,1643,75,very easy to read,01-05-2019 10:45
177,2,144,True,Graphic designer,1,recognition,14,sansforgetica,insumn,non-word,Sure not seen,0.0,seen,insumn,3194,75,very easy to read,01-05-2019 10:45
178,2,144,True,Graphic designer,1,recognition,15,sansforgetica,former,word,Probably seen,1.0,seen,former,1778,75,very easy to read,01-05-2019 10:45
179,2,144,True,Graphic designer,1,recognition,16,sansforgetica,airalow,non-word,Probably not seen,1.0,not seen,aggreciled,3398,75,very easy to read,01-05-2019 10:45
180,2,144,True,Graphic designer,2,lexical,1,sansforgetica,intersive,non-word,Sure word,0.0,,,4354,65,difficult to read,01-05-2019 10:45
181,2,144,True,Graphic designer,2,lexical,2,sansforgetica,traditional,word,Sure word,1.0,,,1002,65,difficult to read,01-05-2019 10:45
182,2,144,True,Graphic designer,2,lexical,3,sansforgetica,company,word,Sure word,1.0,,,1211,65,difficult to read,01-05-2019 10:45
183,2,144,True,Graphic designer,2,lexical,4,sansforgetica,irrection,non-word,Sure word,0.0,,,3153,65,difficult to read,01-05-2019 10:45
184,2,144,True,Graphic designer,2,lexical,5,sansforgetica,couple,word,Sure word,1.0,,,834,65,difficult to read,01-05-2019 10:45
185,2,144,True,Graphic designer,2,lexical,6,sansforgetica,moved,word,Sure word,1.0,,,932,65,difficult to read,01-05-2019 10:45
186,2,144,True,Graphic designer,2,lexical,7,sansforgetica,rateries,non-word,Sure word,0.0,,,2218,65,difficult to read,01-05-2019 10:45
187,2,144,True,Graphic designer,2,lexical,8,sansforgetica,lunds,non-word,Probably non-word,1.0,,,1754,65,difficult to read,01-05-2019 10:45
188,2,144,True,Graphic designer,2,lexical,9,sansforgetica,pericer,non-word,Probably non-word,1.0,,,3736,65,difficult to read,01-05-2019 10:45
189,2,144,True,Graphic designer,2,lexical,10,sansforgetica,nobit,non-word,Probably non-word,1.0,,,3340,65,difficult to read,01-05-2019 10:45
190,2,144,True,Graphic designer,2,lexical,11,sansforgetica,intertution,non-word,Sure word,0.0,,,5727,65,difficult to read,01-05-2019 10:45
191,2,144,True,Graphic designer,2,lexical,12,sansforgetica,granspors,non-word,Probably non-word,1.0,,,3003,65,difficult to read,01-05-2019 10:45
192,2,144,True,Graphic designer,2,lexical,13,sansforgetica,between,word,Sure word,1.0,,,1519,65,difficult to read,01-05-2019 10:45
193,2,144,True,Graphic designer,2,lexical,14,sansforgetica,brease,non-word,Probably non-word,1.0,,,5659,65,difficult to read,01-05-2019 10:45
194,2,144,True,Graphic designer,2,lexical,15,sansforgetica,cities,word,Sure word,1.0,,,2476,65,difficult to read,01-05-2019 10:45
195,2,144,True,Graphic designer,2,lexical,16,sansforgetica,already,word,Sure word,1.0,,,832,65,difficult to read,01-05-2019 10:45
196,2,144,True,Graphic designer,2,lexical,17,sansforgetica,dangerous,word,Sure word,1.0,,,832,65,difficult to read,01-05-2019 10:45
197,2,144,True,Graphic designer,2,lexical,18,sansforgetica,plain,word,Sure word,1.0,,,844,65,difficult to read,01-05-2019 10:45
198,2,144,True,Graphic designer,2,lexical,19,sansforgetica,themselves,word,Sure word,1.0,,,854,65,difficult to read,01-05-2019 10:45
199,2,144,True,Graphic designer,2,lexical,20,sansforgetica,wetween,non-word,Sure non-word,1.0,,,1812,65,difficult to read,01-05-2019 10:45
200,2,144,True,Graphic designer,2,recognition,1,arial,traditional,word,Probably seen,1.0,seen,traditional,4263,65,difficult to read,01-05-2019 10:45
201,2,144,True,Graphic designer,2,recognition,2,arial,irrection,non-word,Sure seen,1.0,seen,irrection,2149,65,difficult to read,01-05-2019 10:45
202,2,144,True,Graphic designer,2,recognition,3,arial,grattered,non-word,Sure not seen,1.0,not seen,granspors,1406,65,difficult to read,01-05-2019 10:45
203,2,144,True,Graphic designer,2,recognition,4,arial,darkness,word,Sure not seen,1.0,not seen,dangerous,1575,65,difficult to read,01-05-2019 10:45
204,2,144,True,Graphic designer,2,recognition,5,arial,civil,word,Sure not seen,1.0,not seen,cities,1374,65,difficult to read,01-05-2019 10:45
205,2,144,True,Graphic designer,2,recognition,6,arial,wetween,non-word,Sure seen,1.0,seen,wetween,1855,65,difficult to read,01-05-2019 10:45
206,2,144,True,Graphic designer,2,recognition,7,arial,brevided,non-word,Sure not seen,1.0,not seen,brease,1305,65,difficult to read,01-05-2019 10:45
207,2,144,True,Graphic designer,2,recognition,8,arial,couple,word,Sure seen,1.0,seen,couple,1496,65,difficult to read,01-05-2019 10:45
208,2,144,True,Graphic designer,2,recognition,9,arial,movements,word,Sure not seen,1.0,not seen,moved,1125,65,difficult to read,01-05-2019 10:45
209,2,144,True,Graphic designer,2,recognition,10,arial,beyond,word,Sure seen,0.0,not seen,between,1282,65,difficult to read,01-05-2019 10:45
210,2,144,True,Graphic designer,2,recognition,11,arial,themselves,word,Sure seen,1.0,seen,themselves,1159,65,difficult to read,01-05-2019 10:45
211,2,144,True,Graphic designer,2,recognition,12,arial,perietail,non-word,Sure not seen,1.0,not seen,pericer,1666,65,difficult to read,01-05-2019 10:45
212,2,144,True,Graphic designer,2,recognition,13,arial,already,word,Probably not seen,0.0,seen,already,1799,65,difficult to read,01-05-2019 10:45
213,2,144,True,Graphic designer,2,recognition,14,arial,intervating,non-word,Probably not seen,1.0,not seen,intertution,2970,65,difficult to read,01-05-2019 10:45
214,2,144,True,Graphic designer,2,recognition,15,arial,intersive,non-word,Probably seen,1.0,seen,intersive,2776,65,difficult to read,01-05-2019 10:45
215,2,144,True,Graphic designer,2,recognition,16,arial,nobit,non-word,Sure seen,1.0,seen,nobit,1218,65,difficult to read,01-05-2019 10:45
216,2,216,False,Other designer,1,lexical,1,sansforgetica,clese,non-word,Sure non-word,1.0,,,7361,19,difficult to read,01-05-2019 10:25
217,2,216,False,Other designer,1,lexical,2,sansforgetica,daughter,word,Sure word,1.0,,,3765,19,difficult to read,01-05-2019 10:25
218,2,216,False,Other designer,1,lexical,3,sansforgetica,gromish,non-word,Probably non-word,1.0,,,4376,19,difficult to read,01-05-2019 10:25
219,2,216,False,Other designer,1,lexical,4,sansforgetica,association,word,Sure word,1.0,,,4748,19,difficult to read,01-05-2019 10:25
220,2,216,False,Other designer,1,lexical,5,sansforgetica,itself,word,Sure word,1.0,,,3816,19,difficult to read,01-05-2019 10:25
221,2,216,False,Other designer,1,lexical,6,sansforgetica,notes,word,Sure word,1.0,,,2946,19,difficult to read,01-05-2019 10:25
222,2,216,False,Other designer,1,lexical,7,sansforgetica,complex,word,Sure word,1.0,,,2368,19,difficult to read,01-05-2019 10:25
223,2,216,False,Other designer,1,lexical,8,sansforgetica,catiquition,non-word,Probably non-word,1.0,,,5719,19,difficult to read,01-05-2019 10:25
224,2,216,False,Other designer,1,lexical,9,sansforgetica,built,word,Sure word,1.0,,,3141,19,difficult to read,01-05-2019 10:25
225,2,216,False,Other designer,1,lexical,10,sansforgetica,midonious,non-word,Probably word,0.0,,,10638,19,difficult to read,01-05-2019 10:25
226,2,216,False,Other designer,1,lexical,11,sansforgetica,poverty,word,Sure word,1.0,,,2131,19,difficult to read,01-05-2019 10:25
227,2,216,False,Other designer,1,lexical,12,sansforgetica,grened,non-word,Sure word,0.0,,,3696,19,difficult to read,01-05-2019 10:25
228,2,216,False,Other designer,1,lexical,13,sansforgetica,learn,word,Sure word,1.0,,,1453,19,difficult to read,01-05-2019 10:25
229,2,216,False,Other designer,1,lexical,14,sansforgetica,artividual,non-word,Probably word,0.0,,,6712,19,difficult to read,01-05-2019 10:25
230,2,216,False,Other designer,1,lexical,15,sansforgetica,refectuning,non-word,Probably non-word,1.0,,,5138,19,difficult to read,01-05-2019 10:25
231,2,216,False,Other designer,1,lexical,16,sansforgetica,occasion,word,Sure word,1.0,,,4422,19,difficult to read,01-05-2019 10:25
232,2,216,False,Other designer,1,lexical,17,sansforgetica,discialness,non-word,Probably non-word,1.0,,,5518,19,difficult to read,01-05-2019 10:25
233,2,216,False,Other designer,1,lexical,18,sansforgetica,asserworly,non-word,Probably non-word,1.0,,,5180,19,difficult to read,01-05-2019 10:25
234,2,216,False,Other designer,1,lexical,19,sansforgetica,visher,non-word,Probably non-word,1.0,,,6892,19,difficult to read,01-05-2019 10:25
235,2,216,False,Other designer,1,lexical,20,sansforgetica,marriage,word,Sure word,1.0,,,3544,19,difficult to read,01-05-2019 10:25
236,2,216,False,Other designer,1,recognition,1,arial,nothing,word,Probably not seen,1.0,not seen,notes,8056,19,difficult to read,01-05-2019 10:25
237,2,216,False,Other designer,1,recognition,2,arial,association,word,Sure seen,1.0,seen,association,2238,19,difficult to read,01-05-2019 10:25
238,2,216,False,Other designer,1,recognition,3,arial,computer,word,Sure not seen,1.0,not seen,complex,4234,19,difficult to read,01-05-2019 10:25
239,2,216,False,Other designer,1,recognition,4,arial,discialness,non-word,Sure seen,1.0,seen,discialness,3458,19,difficult to read,01-05-2019 10:25
240,2,216,False,Other designer,1,recognition,5,arial,greselect,non-word,Probably not seen,1.0,not seen,grened,5590,19,difficult to read,01-05-2019 10:25
241,2,216,False,Other designer,1,recognition,6,arial,visher,non-word,Sure seen,1.0,seen,visher,2097,19,difficult to read,01-05-2019 10:25
242,2,216,False,Other designer,1,recognition,7,arial,assinquent,non-word,Sure seen,0.0,not seen,asserworly,2035,19,difficult to read,01-05-2019 10:25
243,2,216,False,Other designer,1,recognition,8,arial,clese,non-word,Sure seen,1.0,seen,clese,1678,19,difficult to read,01-05-2019 10:25
244,2,216,False,Other designer,1,recognition,9,arial,occasion,word,Sure seen,1.0,seen,occasion,1552,19,difficult to read,01-05-2019 10:25
245,2,216,False,Other designer,1,recognition,10,arial,business,word,Probably not seen,1.0,not seen,built,2278,19,difficult to read,01-05-2019 10:25
246,2,216,False,Other designer,1,recognition,11,arial,milently,non-word,Probably not seen,1.0,not seen,midonious,3427,19,difficult to read,01-05-2019 10:25
247,2,216,False,Other designer,1,recognition,12,arial,death,word,Probably not seen,1.0,not seen,daughter,1665,19,difficult to read,01-05-2019 10:25
248,2,216,False,Other designer,1,recognition,13,arial,catiquition,non-word,Sure seen,1.0,seen,catiquition,1865,19,difficult to read,01-05-2019 10:25
249,2,216,False,Other designer,1,recognition,14,arial,refengement,non-word,Probably not seen,1.0,not seen,refectuning,1924,19,difficult to read,01-05-2019 10:25
250,2,216,False,Other designer,1,recognition,15,arial,itself,word,Sure seen,1.0,seen,itself,1386,19,difficult to read,01-05-2019 10:25
251,2,216,False,Other designer,1,recognition,16,arial,learn,word,Sure seen,1.0,seen,learn,2961,19,difficult to read,01-05-2019 10:25
252,2,216,False,Other designer,2,lexical,1,arial,enoups,non-word,Probably non-word,1.0,,,8604,63,very easy to read,01-05-2019 10:25
253,2,216,False,Other designer,2,lexical,2,arial,despite,word,Sure word,1.0,,,2268,63,very easy to read,01-05-2019 10:25
254,2,216,False,Other designer,2,lexical,3,arial,share,word,Sure word,1.0,,,1280,63,very easy to read,01-05-2019 10:25
255,2,216,False,Other designer,2,lexical,4,arial,darkness,word,Sure word,1.0,,,1376,63,very easy to read,01-05-2019 10:25
256,2,216,False,Other designer,2,lexical,5,arial,plastic,word,Sure word,1.0,,,2653,63,very easy to read,01-05-2019 10:25
257,2,216,False,Other designer,2,lexical,6,arial,heinge,non-word,Probably word,0.0,,,2911,63,very easy to read,01-05-2019 10:25
258,2,216,False,Other designer,2,lexical,7,arial,airport,word,Sure word,1.0,,,1708,63,very easy to read,01-05-2019 10:25
259,2,216,False,Other designer,2,lexical,8,arial,newspapers,word,Sure word,1.0,,,1401,63,very easy to read,01-05-2019 10:25
260,2,216,False,Other designer,2,lexical,9,arial,believed,word,Sure word,1.0,,,1380,63,very easy to read,01-05-2019 10:25
261,2,216,False,Other designer,2,lexical,10,arial,bothin,non-word,Probably non-word,1.0,,,3274,63,very easy to read,01-05-2019 10:25
262,2,216,False,Other designer,2,lexical,11,arial,histemence,non-word,Sure word,0.0,,,2273,63,very easy to read,01-05-2019 10:25
263,2,216,False,Other designer,2,lexical,12,arial,occalution,non-word,Probably non-word,1.0,,,4406,63,very easy to read,01-05-2019 10:25
264,2,216,False,Other designer,2,lexical,13,arial,totally,word,Sure word,1.0,,,1852,63,very easy to read,01-05-2019 10:25
265,2,216,False,Other designer,2,lexical,14,arial,scratious,non-word,Probably word,0.0,,,6314,63,very easy to read,01-05-2019 10:25
266,2,216,False,Other designer,2,lexical,15,arial,incriance,non-word,Probably word,0.0,,,1920,63,very easy to read,01-05-2019 10:25
267,2,216,False,Other designer,2,lexical,16,arial,narrow,word,Sure word,1.0,,,1530,63,very easy to read,01-05-2019 10:25
268,2,216,False,Other designer,2,lexical,17,arial,breath,word,Sure word,1.0,,,1371,63,very easy to read,01-05-2019 10:25
269,2,216,False,Other designer,2,lexical,18,arial,ofter,non-word,Probably non-word,1.0,,,3799,63,very easy to read,01-05-2019 10:25
270,2,216,False,Other designer,2,lexical,19,arial,eassed,non-word,Sure word,0.0,,,2481,63,very easy to read,01-05-2019 10:25
271,2,216,False,Other designer,2,lexical,20,arial,gensibility,non-word,Probably non-word,1.0,,,2817,63,very easy to read,01-05-2019 10:25
272,2,216,False,Other designer,2,recognition,1,sansforgetica,alive,word,Probably not seen,1.0,not seen,airport,5665,63,very easy to read,01-05-2019 10:25
273,2,216,False,Other designer,2,recognition,2,sansforgetica,share,word,Sure seen,1.0,seen,share,2376,63,very easy to read,01-05-2019 10:25
274,2,216,False,Other designer,2,recognition,3,sansforgetica,incriance,non-word,Probably not seen,0.0,seen,incriance,5714,63,very easy to read,01-05-2019 10:25
275,2,216,False,Other designer,2,recognition,4,sansforgetica,night,word,Probably not seen,1.0,not seen,newspapers,1580,63,very easy to read,01-05-2019 10:25
276,2,216,False,Other designer,2,recognition,5,sansforgetica,occalution,non-word,Sure seen,1.0,seen,occalution,2776,63,very easy to read,01-05-2019 10:25
277,2,216,False,Other designer,2,recognition,6,sansforgetica,seanspother,non-word,Sure not seen,1.0,not seen,scratious,3382,63,very easy to read,01-05-2019 10:25
278,2,216,False,Other designer,2,recognition,7,sansforgetica,gensibility,non-word,Sure seen,1.0,seen,gensibility,1981,63,very easy to read,01-05-2019 10:25
279,2,216,False,Other designer,2,recognition,8,sansforgetica,heinge,non-word,Sure seen,1.0,seen,heinge,2751,63,very easy to read,01-05-2019 10:25
280,2,216,False,Other designer,2,recognition,9,sansforgetica,plastic,word,Sure seen,1.0,seen,plastic,2011,63,very easy to read,01-05-2019 10:25
281,2,216,False,Other designer,2,recognition,10,sansforgetica,bridge,word,Probably not seen,1.0,not seen,breath,4814,63,very easy to read,01-05-2019 10:25
282,2,216,False,Other designer,2,recognition,11,sansforgetica,dangerous,word,Sure seen,0.0,not seen,darkness,3846,63,very easy to read,01-05-2019 10:25
283,2,216,False,Other designer,2,recognition,12,sansforgetica,olded,non-word,Probably not seen,1.0,not seen,ofter,2806,63,very easy to read,01-05-2019 10:25
284,2,216,False,Other designer,2,recognition,13,sansforgetica,despite,word,Sure seen,1.0,seen,despite,1616,63,very easy to read,01-05-2019 10:25
285,2,216,False,Other designer,2,recognition,14,sansforgetica,narrow,word,Sure seen,1.0,seen,narrow,1472,63,very easy to read,01-05-2019 10:25
286,2,216,False,Other designer,2,recognition,15,sansforgetica,bountions,non-word,Sure not seen,1.0,not seen,bothin,3525,63,very easy to read,01-05-2019 10:25
287,2,216,False,Other designer,2,recognition,16,sansforgetica,holts,non-word,Sure not seen,1.0,not seen,histemence,3374,63,very easy to read,01-05-2019 10:25
288,2,288,False,Other designer,1,lexical,1,arial,sucling,non-word,Sure non-word,1.0,,,4064,50,easy to read,01-05-2019 10:11
289,2,288,False,Other designer,1,lexical,2,arial,published,word,Sure word,1.0,,,1657,50,easy to read,01-05-2019 10:11
290,2,288,False,Other designer,1,lexical,3,arial,ancidly,non-word,Probably non-word,1.0,,,2583,50,easy to read,01-05-2019 10:11
291,2,288,False,Other designer,1,lexical,4,arial,smoke,word,Sure word,1.0,,,2161,50,easy to read,01-05-2019 10:11
292,2,288,False,Other designer,1,lexical,5,arial,preakfase,non-word,Sure non-word,1.0,,,4256,50,easy to read,01-05-2019 10:11
293,2,288,False,Other designer,1,lexical,6,arial,brought,word,Sure word,1.0,,,2106,50,easy to read,01-05-2019 10:11
294,2,288,False,Other designer,1,lexical,7,arial,schoon,non-word,Sure non-word,1.0,,,2725,50,easy to read,01-05-2019 10:11
295,2,288,False,Other designer,1,lexical,8,arial,hunneshed,non-word,Sure non-word,1.0,,,1601,50,easy to read,01-05-2019 10:11
296,2,288,False,Other designer,1,lexical,9,arial,calculgical,non-word,Sure non-word,1.0,,,1360,50,easy to read,01-05-2019 10:11
297,2,288,False,Other designer,1,lexical,10,arial,sprairen,non-word,Sure non-word,1.0,,,1736,50,easy to read,01-05-2019 10:11
298,2,288,False,Other designer,1,lexical,11,arial,playing,word,Sure word,1.0,,,1551,50,easy to read,01-05-2019 10:11
299,2,288,False,Other designer,1,lexical,12,arial,earlier,word,Sure word,1.0,,,1152,50,easy to read,01-05-2019 10:11
300,2,288,False,Other designer,1,lexical,13,arial,immediately,word,Sure word,1.0,,,1040,50,easy to read,01-05-2019 10:11
301,2,288,False,Other designer,1,lexical,14,arial,increved,non-word,Probably non-word,1.0,,,2569,50,easy to read,01-05-2019 10:11
302,2,288,False,Other designer,1,lexical,15,arial,thelf,non-word,Probably word,0.0,,,3511,50,easy to read,01-05-2019 10:11
303,2,288,False,Other designer,1,lexical,16,arial,becruit,non-word,Sure non-word,1.0,,,2640,50,easy to read,01-05-2019 10:11
304,2,288,False,Other designer,1,lexical,17,arial,inside,word,Sure word,1.0,,,1280,50,easy to read,01-05-2019 10:11
305,2,288,False,Other designer,1,lexical,18,arial,thought,word,Sure word,1.0,,,945,50,easy to read,01-05-2019 10:11
306,2,288,False,Other designer,1,lexical,19,arial,notice,word,Sure word,1.0,,,1047,50,easy to read,01-05-2019 10:11
307,2,288,False,Other designer,1,lexical,20,arial,fairly,word,Sure word,1.0,,,1170,50,easy to read,01-05-2019 10:11
308,2,288,False,Other designer,1,recognition,1,sansforgetica,social,word,Sure seen,0.0,not seen,smoke,3976,50,easy to read,01-05-2019 10:11
309,2,288,False,Other designer,1,recognition,2,sansforgetica,thembling,non-word,Probably seen,0.0,not seen,thelf,3919,50,easy to read,01-05-2019 10:11
310,2,288,False,Other designer,1,recognition,3,sansforgetica,published,word,Sure seen,1.0,seen,published,1352,50,easy to read,01-05-2019 10:11
311,2,288,False,Other designer,1,recognition,4,sansforgetica,increved,non-word,Probably seen,1.0,seen,increved,2185,50,easy to read,01-05-2019 10:11
312,2,288,False,Other designer,1,recognition,5,sansforgetica,becruit,non-word,Sure seen,1.0,seen,becruit,3511,50,easy to read,01-05-2019 10:11
313,2,288,False,Other designer,1,recognition,6,sansforgetica,ancidly,non-word,Probably not seen,0.0,seen,ancidly,3608,50,easy to read,01-05-2019 10:11
314,2,288,False,Other designer,1,recognition,7,sansforgetica,thousands,word,Probably not seen,1.0,not seen,thought,1864,50,easy to read,01-05-2019 10:11
315,2,288,False,Other designer,1,recognition,8,sansforgetica,importance,word,Probably seen,0.0,not seen,immediately,3160,50,easy to read,01-05-2019 10:11
316,2,288,False,Other designer,1,recognition,9,sansforgetica,cammuning,non-word,Probably not seen,1.0,not seen,calculgical,1583,50,easy to read,01-05-2019 10:11
317,2,288,False,Other designer,1,recognition,10,sansforgetica,scientable,non-word,Probably seen,0.0,not seen,schoon,2681,50,easy to read,01-05-2019 10:11
318,2,288,False,Other designer,1,recognition,11,sansforgetica,playing,word,Sure seen,1.0,seen,playing,1584,50,easy to read,01-05-2019 10:11
319,2,288,False,Other designer,1,recognition,12,sansforgetica,inside,word,Sure seen,1.0,seen,inside,831,50,easy to read,01-05-2019 10:11
320,2,288,False,Other designer,1,recognition,13,sansforgetica,brought,word,Probably seen,1.0,seen,brought,1504,50,easy to read,01-05-2019 10:11
321,2,288,False,Other designer,1,recognition,14,sansforgetica,hunneshed,non-word,Probably seen,1.0,seen,hunneshed,1449,50,easy to read,01-05-2019 10:11
322,2,288,False,Other designer,1,recognition,15,sansforgetica,suddence,non-word,Probably seen,0.0,not seen,sucling,1447,50,easy to read,01-05-2019 10:11
323,2,288,False,Other designer,1,recognition,16,sansforgetica,early,word,Probably seen,0.0,not seen,earlier,1089,50,easy to read,01-05-2019 10:11
324,2,288,False,Other designer,2,lexical,1,sansforgetica,ourselves,word,Sure word,1.0,,,4522,50,ok,01-05-2019 10:11
325,2,288,False,Other designer,2,lexical,2,sansforgetica,goods,word,Sure word,1.0,,,918,50,ok,01-05-2019 10:11
326,2,288,False,Other designer,2,lexical,3,sansforgetica,proferounds,non-word,Sure non-word,1.0,,,3024,50,ok,01-05-2019 10:11
327,2,288,False,Other designer,2,lexical,4,sansforgetica,prefulsion,non-word,Sure non-word,1.0,,,1177,50,ok,01-05-2019 10:11
328,2,288,False,Other designer,2,lexical,5,sansforgetica,around,word,Sure word,1.0,,,1664,50,ok,01-05-2019 10:11
329,2,288,False,Other designer,2,lexical,6,sansforgetica,mealth,non-word,Sure non-word,1.0,,,2240,50,ok,01-05-2019 10:11
330,2,288,False,Other designer,2,lexical,7,sansforgetica,holding,word,Sure word,1.0,,,1664,50,ok,01-05-2019 10:11
331,2,288,False,Other designer,2,lexical,8,sansforgetica,along,word,Sure word,1.0,,,1040,50,ok,01-05-2019 10:11
332,2,288,False,Other designer,2,lexical,9,sansforgetica,larms,non-word,Probably non-word,1.0,,,2424,50,ok,01-05-2019 10:11
333,2,288,False,Other designer,2,lexical,10,sansforgetica,minned,non-word,Sure word,0.0,,,1800,50,ok,01-05-2019 10:11
334,2,288,False,Other designer,2,lexical,11,sansforgetica,charge,word,Sure word,1.0,,,888,50,ok,01-05-2019 10:11
335,2,288,False,Other designer,2,lexical,12,sansforgetica,police,word,Sure word,1.0,,,975,50,ok,01-05-2019 10:11
336,2,288,False,Other designer,2,lexical,13,sansforgetica,development,word,Sure word,1.0,,,1216,50,ok,01-05-2019 10:11
337,2,288,False,Other designer,2,lexical,14,sansforgetica,dictrised,non-word,Probably word,0.0,,,2440,50,ok,01-05-2019 10:11
338,2,288,False,Other designer,2,lexical,15,sansforgetica,happlemas,non-word,Probably word,0.0,,,1200,50,ok,01-05-2019 10:11
339,2,288,False,Other designer,2,lexical,16,sansforgetica,entivisive,non-word,Sure word,0.0,,,2208,50,ok,01-05-2019 10:11
340,2,288,False,Other designer,2,lexical,17,sansforgetica,internably,non-word,Sure word,0.0,,,1697,50,ok,01-05-2019 10:11
341,2,288,False,Other designer,2,lexical,18,sansforgetica,fingers,word,Sure word,1.0,,,1087,50,ok,01-05-2019 10:11
342,2,288,False,Other designer,2,lexical,19,sansforgetica,table,word,Sure word,1.0,,,824,50,ok,01-05-2019 10:11
343,2,288,False,Other designer,2,lexical,20,sansforgetica,stradfules,non-word,Probably non-word,1.0,,,1553,50,ok,01-05-2019 10:11
344,2,288,False,Other designer,2,recognition,1,arial,lational,non-word,Sure not seen,1.0,not seen,larms,3289,50,ok,01-05-2019 10:11
345,2,288,False,Other designer,2,recognition,2,arial,minned,non-word,Probably seen,1.0,seen,minned,11543,50,ok,01-05-2019 10:11
346,2,288,False,Other designer,2,recognition,3,arial,entivisive,non-word,Probably not seen,0.0,seen,entivisive,1384,50,ok,01-05-2019 10:11
347,2,288,False,Other designer,2,recognition,4,arial,difference,word,Probably seen,0.0,not seen,development,680,50,ok,01-05-2019 10:11
348,2,288,False,Other designer,2,recognition,5,arial,government,word,Probably seen,0.0,not seen,goods,719,50,ok,01-05-2019 10:11
349,2,288,False,Other designer,2,recognition,6,arial,outside,word,Sure seen,0.0,not seen,ourselves,1314,50,ok,01-05-2019 10:11
350,2,288,False,Other designer,2,recognition,7,arial,mealth,non-word,Sure seen,1.0,seen,mealth,687,50,ok,01-05-2019 10:11
351,2,288,False,Other designer,2,recognition,8,arial,dictrised,non-word,Probably seen,1.0,seen,dictrised,1016,50,ok,01-05-2019 10:11
352,2,288,False,Other designer,2,recognition,9,arial,premselves,non-word,Probably seen,0.0,not seen,prefulsion,1152,50,ok,01-05-2019 10:11
353,2,288,False,Other designer,2,recognition,10,arial,along,word,Sure seen,1.0,seen,along,824,50,ok,01-05-2019 10:11
354,2,288,False,Other designer,2,recognition,11,arial,police,word,Sure seen,1.0,seen,police,720,50,ok,01-05-2019 10:11
355,2,288,False,Other designer,2,recognition,12,arial,table,word,Sure seen,1.0,seen,table,665,50,ok,01-05-2019 10:11
356,2,288,False,Other designer,2,recognition,13,arial,happose,non-word,Sure seen,0.0,not seen,happlemas,599,50,ok,01-05-2019 10:11
357,2,288,False,Other designer,2,recognition,14,arial,fingers,word,Sure seen,1.0,seen,fingers,759,50,ok,01-05-2019 10:11
358,2,288,False,Other designer,2,recognition,15,arial,holiday,word,Sure seen,0.0,not seen,holding,739,50,ok,01-05-2019 10:11
359,2,288,False,Other designer,2,recognition,16,arial,profertion,non-word,Probably seen,0.0,not seen,proferounds,1167,50,ok,01-05-2019 10:11
360,2,360,True,Graphic designer,1,lexical,1,sansforgetica,admit,word,Sure word,1.0,,,4056,50,ok,01-05-2019 09:51
361,2,360,True,Graphic designer,1,lexical,2,sansforgetica,fineraing,non-word,Probably word,0.0,,,6495,50,ok,01-05-2019 09:51
362,2,360,True,Graphic designer,1,lexical,3,sansforgetica,steet,non-word,Sure word,0.0,,,1761,50,ok,01-05-2019 09:51
363,2,360,True,Graphic designer,1,lexical,4,sansforgetica,designed,word,Sure word,1.0,,,2919,50,ok,01-05-2019 09:51
364,2,360,True,Graphic designer,1,lexical,5,sansforgetica,imporaters,non-word,Probably word,0.0,,,5337,50,ok,01-05-2019 09:51
365,2,360,True,Graphic designer,1,lexical,6,sansforgetica,discussion,word,Sure word,1.0,,,2575,50,ok,01-05-2019 09:51
366,2,360,True,Graphic designer,1,lexical,7,sansforgetica,regarded,word,Sure word,1.0,,,2961,50,ok,01-05-2019 09:51
367,2,360,True,Graphic designer,1,lexical,8,sansforgetica,thousands,word,Sure word,1.0,,,1983,50,ok,01-05-2019 09:51
368,2,360,True,Graphic designer,1,lexical,9,sansforgetica,heroad,non-word,Sure non-word,1.0,,,6328,50,ok,01-05-2019 09:51
369,2,360,True,Graphic designer,1,lexical,10,sansforgetica,beginness,non-word,Probably non-word,1.0,,,5737,50,ok,01-05-2019 09:51
370,2,360,True,Graphic designer,1,lexical,11,sansforgetica,wonfetry,non-word,Sure non-word,1.0,,,3255,50,ok,01-05-2019 09:51
371,2,360,True,Graphic designer,1,lexical,12,sansforgetica,driving,word,Sure word,1.0,,,3688,50,ok,01-05-2019 09:51
372,2,360,True,Graphic designer,1,lexical,13,sansforgetica,mesters,non-word,Probably non-word,1.0,,,4912,50,ok,01-05-2019 09:51
373,2,360,True,Graphic designer,1,lexical,14,sansforgetica,higher,word,Sure word,1.0,,,1752,50,ok,01-05-2019 09:51
374,2,360,True,Graphic designer,1,lexical,15,sansforgetica,complete,word,Sure word,1.0,,,3728,50,ok,01-05-2019 09:51
375,2,360,True,Graphic designer,1,lexical,16,sansforgetica,treselved,non-word,Probably word,0.0,,,8208,50,ok,01-05-2019 09:51
376,2,360,True,Graphic designer,1,lexical,17,sansforgetica,beausance,non-word,Probably word,0.0,,,9751,50,ok,01-05-2019 09:51
377,2,360,True,Graphic designer,1,lexical,18,sansforgetica,hours,word,Sure word,1.0,,,2464,50,ok,01-05-2019 09:51
378,2,360,True,Graphic designer,1,lexical,19,sansforgetica,division,word,Sure word,1.0,,,2384,50,ok,01-05-2019 09:51
379,2,360,True,Graphic designer,1,lexical,20,sansforgetica,prospries,non-word,Sure word,0.0,,,5215,50,ok,01-05-2019 09:51
380,2,360,True,Graphic designer,1,recognition,1,arial,driving,word,Sure seen,1.0,seen,driving,4567,50,ok,01-05-2019 09:51
381,2,360,True,Graphic designer,1,recognition,2,arial,behausion,non-word,Sure seen,0.0,not seen,beginness,2808,50,ok,01-05-2019 09:51
382,2,360,True,Graphic designer,1,recognition,3,arial,discussion,word,Probably seen,1.0,seen,discussion,3544,50,ok,01-05-2019 09:51
383,2,360,True,Graphic designer,1,recognition,4,arial,heroad,non-word,Sure seen,1.0,seen,heroad,3352,50,ok,01-05-2019 09:51
384,2,360,True,Graphic designer,1,recognition,5,arial,beausance,non-word,Probably seen,1.0,seen,beausance,4136,50,ok,01-05-2019 09:51
385,2,360,True,Graphic designer,1,recognition,6,arial,regular,word,Sure not seen,1.0,not seen,regarded,3200,50,ok,01-05-2019 09:51
386,2,360,True,Graphic designer,1,recognition,7,arial,fineraing,non-word,Sure seen,1.0,seen,fineraing,1896,50,ok,01-05-2019 09:51
387,2,360,True,Graphic designer,1,recognition,8,arial,stich,non-word,Sure not seen,1.0,not seen,steet,1776,50,ok,01-05-2019 09:51
388,2,360,True,Graphic designer,1,recognition,9,arial,doctor,word,Sure not seen,1.0,not seen,division,2552,50,ok,01-05-2019 09:51
389,2,360,True,Graphic designer,1,recognition,10,arial,highly,word,Sure not seen,1.0,not seen,higher,1968,50,ok,01-05-2019 09:51
390,2,360,True,Graphic designer,1,recognition,11,arial,adult,word,Sure not seen,1.0,not seen,admit,1728,50,ok,01-05-2019 09:51
391,2,360,True,Graphic designer,1,recognition,12,arial,designed,word,Sure seen,1.0,seen,designed,1624,50,ok,01-05-2019 09:51
392,2,360,True,Graphic designer,1,recognition,13,arial,metween,non-word,Sure not seen,1.0,not seen,mesters,2575,50,ok,01-05-2019 09:51
393,2,360,True,Graphic designer,1,recognition,14,arial,hours,word,Sure seen,1.0,seen,hours,1929,50,ok,01-05-2019 09:51
394,2,360,True,Graphic designer,1,recognition,15,arial,imporaters,non-word,Sure seen,1.0,seen,imporaters,1879,50,ok,01-05-2019 09:51
395,2,360,True,Graphic designer,1,recognition,16,arial,protbation,non-word,Probably not seen,1.0,not seen,prospries,2905,50,ok,01-05-2019 09:51
396,2,360,True,Graphic designer,2,lexical,1,arial,valeamer,non-word,Probably non-word,1.0,,,8176,82,very easy to read,01-05-2019 09:51
397,2,360,True,Graphic designer,2,lexical,2,arial,actions,word,Sure word,1.0,,,1513,82,very easy to read,01-05-2019 09:51
398,2,360,True,Graphic designer,2,lexical,3,arial,sister,word,Sure word,1.0,,,1472,82,very easy to read,01-05-2019 09:51
399,2,360,True,Graphic designer,2,lexical,4,arial,raince,non-word,Probably word,0.0,,,4591,82,very easy to read,01-05-2019 09:51
400,2,360,True,Graphic designer,2,lexical,5,arial,leading,word,Sure word,1.0,,,1400,82,very easy to read,01-05-2019 09:51
401,2,360,True,Graphic designer,2,lexical,6,arial,happened,word,Sure word,1.0,,,1929,82,very easy to read,01-05-2019 09:51
402,2,360,True,Graphic designer,2,lexical,7,arial,frantage,non-word,Probably word,0.0,,,5952,82,very easy to read,01-05-2019 09:51
403,2,360,True,Graphic designer,2,lexical,8,arial,minglem,non-word,Probably non-word,1.0,,,3879,82,very easy to read,01-05-2019 09:51
404,2,360,True,Graphic designer,2,lexical,9,arial,lowely,non-word,Sure non-word,1.0,,,4513,82,very easy to read,01-05-2019 09:51
405,2,360,True,Graphic designer,2,lexical,10,arial,common,word,Sure word,1.0,,,1607,82,very easy to read,01-05-2019 09:51
406,2,360,True,Graphic designer,2,lexical,11,arial,enjoy,word,Sure word,1.0,,,1193,82,very easy to read,01-05-2019 09:51
407,2,360,True,Graphic designer,2,lexical,12,arial,provisted,non-word,Sure word,0.0,,,4351,82,very easy to read,01-05-2019 09:51
408,2,360,True,Graphic designer,2,lexical,13,arial,educational,word,Sure word,1.0,,,1569,82,very easy to read,01-05-2019 09:51
409,2,360,True,Graphic designer,2,lexical,14,arial,nodief,non-word,Probably non-word,1.0,,,1847,82,very easy to read,01-05-2019 09:51
410,2,360,True,Graphic designer,2,lexical,15,arial,discovered,word,Sure word,1.0,,,1777,82,very easy to read,01-05-2019 09:51
411,2,360,True,Graphic designer,2,lexical,16,arial,activities,word,Sure word,1.0,,,984,82,very easy to read,01-05-2019 09:51
412,2,360,True,Graphic designer,2,lexical,17,arial,fusic,non-word,Probably word,0.0,,,1719,82,very easy to read,01-05-2019 09:51
413,2,360,True,Graphic designer,2,lexical,18,arial,theatre,word,Sure word,1.0,,,3064,82,very easy to read,01-05-2019 09:51
414,2,360,True,Graphic designer,2,lexical,19,arial,squiplent,non-word,Probably word,0.0,,,3433,82,very easy to read,01-05-2019 09:51
415,2,360,True,Graphic designer,2,lexical,20,arial,geart,non-word,Probably non-word,1.0,,,4080,82,very easy to read,01-05-2019 09:51
416,2,360,True,Graphic designer,2,recognition,1,sansforgetica,nodief,non-word,Sure seen,1.0,seen,nodief,6368,82,very easy to read,01-05-2019 09:51
417,2,360,True,Graphic designer,2,recognition,2,sansforgetica,geart,non-word,Sure seen,1.0,seen,geart,2640,82,very easy to read,01-05-2019 09:51
418,2,360,True,Graphic designer,2,recognition,3,sansforgetica,faitain,non-word,Sure not seen,1.0,not seen,fusic,4560,82,very easy to read,01-05-2019 09:51
419,2,360,True,Graphic designer,2,recognition,4,sansforgetica,learn,word,Sure seen,0.0,not seen,leading,1536,82,very easy to read,01-05-2019 09:51
420,2,360,True,Graphic designer,2,recognition,5,sansforgetica,freasional,non-word,Probably seen,0.0,not seen,frantage,3336,82,very easy to read,01-05-2019 09:51
421,2,360,True,Graphic designer,2,recognition,6,sansforgetica,happened,word,Sure seen,1.0,seen,happened,1471,82,very easy to read,01-05-2019 09:51
422,2,360,True,Graphic designer,2,recognition,7,sansforgetica,lowely,non-word,Sure seen,1.0,seen,lowely,1352,82,very easy to read,01-05-2019 09:51
423,2,360,True,Graphic designer,2,recognition,8,sansforgetica,active,word,Sure seen,0.0,not seen,actions,1560,82,very easy to read,01-05-2019 09:51
424,2,360,True,Graphic designer,2,recognition,9,sansforgetica,sister,word,Sure seen,1.0,seen,sister,1088,82,very easy to read,01-05-2019 09:51
425,2,360,True,Graphic designer,2,recognition,10,sansforgetica,enjoy,word,Sure seen,1.0,seen,enjoy,888,82,very easy to read,01-05-2019 09:51
426,2,360,True,Graphic designer,2,recognition,11,sansforgetica,vally,non-word,Sure not seen,1.0,not seen,valeamer,1872,82,very easy to read,01-05-2019 09:51
427,2,360,True,Graphic designer,2,recognition,12,sansforgetica,their,word,Sure not seen,1.0,not seen,theatre,1399,82,very easy to read,01-05-2019 09:51
428,2,360,True,Graphic designer,2,recognition,13,sansforgetica,discovered,word,Sure seen,1.0,seen,discovered,1880,82,very easy to read,01-05-2019 09:51
429,2,360,True,Graphic designer,2,recognition,14,sansforgetica,prowney,non-word,Probably not seen,1.0,not seen,provisted,2049,82,very easy to read,01-05-2019 09:51
430,2,360,True,Graphic designer,2,recognition,15,sansforgetica,minglem,non-word,Sure not seen,0.0,seen,minglem,2200,82,very easy to read,01-05-2019 09:51
431,2,360,True,Graphic designer,2,recognition,16,sansforgetica,actual,word,Sure not seen,1.0,not seen,activities,4888,82,very easy to read,01-05-2019 09:51
432,2,432,False,Graphic designer,1,lexical,1,arial,minisity,non-word,Sure non-word,1.0,,,15268,65,easy to read,01-05-2019 00:19
433,2,432,False,Graphic designer,1,lexical,2,arial,dwayed,non-word,Sure non-word,1.0,,,10009,65,easy to read,01-05-2019 00:19
434,2,432,False,Graphic designer,1,lexical,3,arial,terms,word,Sure word,1.0,,,3065,65,easy to read,01-05-2019 00:19
435,2,432,False,Graphic designer,1,lexical,4,arial,disartanter,non-word,Sure non-word,1.0,,,18775,65,easy to read,01-05-2019 00:19
436,2,432,False,Graphic designer,1,lexical,5,arial,attack,word,Sure word,1.0,,,2001,65,easy to read,01-05-2019 00:19
437,2,432,False,Graphic designer,1,lexical,6,arial,purmater,non-word,Probably non-word,1.0,,,11591,65,easy to read,01-05-2019 00:19
438,2,432,False,Graphic designer,1,lexical,7,arial,reginning,non-word,Probably non-word,1.0,,,15133,65,easy to read,01-05-2019 00:19
439,2,432,False,Graphic designer,1,lexical,8,arial,replogy,non-word,Probably non-word,1.0,,,13172,65,easy to read,01-05-2019 00:19
440,2,432,False,Graphic designer,1,lexical,9,arial,londow,non-word,Sure non-word,1.0,,,9518,65,easy to read,01-05-2019 00:19
441,2,432,False,Graphic designer,1,lexical,10,arial,excent,non-word,Probably word,0.0,,,11425,65,easy to read,01-05-2019 00:19
442,2,432,False,Graphic designer,1,lexical,11,arial,forgotten,word,Sure word,1.0,,,4416,65,easy to read,01-05-2019 00:19
443,2,432,False,Graphic designer,1,lexical,12,arial,dindow,non-word,Probably non-word,1.0,,,12273,65,easy to read,01-05-2019 00:19
444,2,432,False,Graphic designer,1,lexical,13,arial,sudden,word,Sure word,1.0,,,2144,65,easy to read,01-05-2019 00:19
445,2,432,False,Graphic designer,1,lexical,14,arial,pleasure,word,Sure word,1.0,,,1372,65,easy to read,01-05-2019 00:19
446,2,432,False,Graphic designer,1,lexical,15,arial,accepted,word,Sure word,1.0,,,1922,65,easy to read,01-05-2019 00:19
447,2,432,False,Graphic designer,1,lexical,16,arial,difficulty,word,Sure word,1.0,,,3311,65,easy to read,01-05-2019 00:19
448,2,432,False,Graphic designer,1,lexical,17,arial,better,word,Sure word,1.0,,,2046,65,easy to read,01-05-2019 00:19
449,2,432,False,Graphic designer,1,lexical,18,arial,garden,word,Sure word,1.0,,,1737,65,easy to read,01-05-2019 00:19
450,2,432,False,Graphic designer,1,lexical,19,arial,preferitied,non-word,Probably non-word,1.0,,,15844,65,easy to read,01-05-2019 00:19
451,2,432,False,Graphic designer,1,lexical,20,arial,education,word,Sure word,1.0,,,1913,65,easy to read,01-05-2019 00:19
452,2,432,False,Graphic designer,1,recognition,1,sansforgetica,direndly,non-word,Sure not seen,1.0,not seen,dindow,21693,65,easy to read,01-05-2019 00:19
453,2,432,False,Graphic designer,1,recognition,2,sansforgetica,better,word,Sure seen,1.0,seen,better,2145,65,easy to read,01-05-2019 00:19
454,2,432,False,Graphic designer,1,recognition,3,sansforgetica,accident,word,Probably not seen,1.0,not seen,accepted,13418,65,easy to read,01-05-2019 00:19
455,2,432,False,Graphic designer,1,recognition,4,sansforgetica,terrible,word,Sure not seen,1.0,not seen,terms,2674,65,easy to read,01-05-2019 00:19
456,2,432,False,Graphic designer,1,recognition,5,sansforgetica,minned,non-word,Sure not seen,1.0,not seen,minisity,12424,65,easy to read,01-05-2019 00:19
457,2,432,False,Graphic designer,1,recognition,6,sansforgetica,dwayed,non-word,Sure seen,1.0,seen,dwayed,5369,65,easy to read,01-05-2019 00:19
458,2,432,False,Graphic designer,1,recognition,7,sansforgetica,londow,non-word,Sure not seen,0.0,seen,londow,5597,65,easy to read,01-05-2019 00:19
459,2,432,False,Graphic designer,1,recognition,8,sansforgetica,forgotten,word,Sure seen,1.0,seen,forgotten,2059,65,easy to read,01-05-2019 00:19
460,2,432,False,Graphic designer,1,recognition,9,sansforgetica,garden,word,Sure seen,1.0,seen,garden,1309,65,easy to read,01-05-2019 00:19
461,2,432,False,Graphic designer,1,recognition,10,sansforgetica,excent,non-word,Sure seen,1.0,seen,excent,2321,65,easy to read,01-05-2019 00:19
462,2,432,False,Graphic designer,1,recognition,11,sansforgetica,sugar,word,Sure not seen,1.0,not seen,sudden,2524,65,easy to read,01-05-2019 00:19
463,2,432,False,Graphic designer,1,recognition,12,sansforgetica,reginning,non-word,Sure seen,1.0,seen,reginning,1922,65,easy to read,01-05-2019 00:19
464,2,432,False,Graphic designer,1,recognition,13,sansforgetica,pleasure,word,Sure seen,1.0,seen,pleasure,1762,65,easy to read,01-05-2019 00:19
465,2,432,False,Graphic designer,1,recognition,14,sansforgetica,prefulsion,non-word,Sure not seen,1.0,not seen,preferitied,3443,65,easy to read,01-05-2019 00:19
466,2,432,False,Graphic designer,1,recognition,15,sansforgetica,repreased,non-word,Sure not seen,1.0,not seen,replogy,13166,65,easy to read,01-05-2019 00:19
467,2,432,False,Graphic designer,1,recognition,16,sansforgetica,educational,word,Sure not seen,1.0,not seen,education,2376,65,easy to read,01-05-2019 00:19
468,2,432,False,Graphic designer,2,lexical,1,sansforgetica,command,word,Sure word,1.0,,,12453,67,ok,01-05-2019 00:19
469,2,432,False,Graphic designer,2,lexical,2,sansforgetica,govelesses,non-word,Probably word,0.0,,,28026,67,ok,01-05-2019 00:19
470,2,432,False,Graphic designer,2,lexical,3,sansforgetica,press,word,Sure word,1.0,,,8187,67,ok,01-05-2019 00:19
471,2,432,False,Graphic designer,2,lexical,4,sansforgetica,sisture,non-word,Probably non-word,1.0,,,19596,67,ok,01-05-2019 00:19
472,2,432,False,Graphic designer,2,lexical,5,sansforgetica,agreement,word,Sure word,1.0,,,1753,67,ok,01-05-2019 00:19
473,2,432,False,Graphic designer,2,lexical,6,sansforgetica,economic,word,Sure word,1.0,,,2309,67,ok,01-05-2019 00:19
474,2,432,False,Graphic designer,2,lexical,7,sansforgetica,scene,word,Sure word,1.0,,,2233,67,ok,01-05-2019 00:19
475,2,432,False,Graphic designer,2,lexical,8,sansforgetica,concessibly,non-word,Probably word,0.0,,,26622,67,ok,01-05-2019 00:19
476,2,432,False,Graphic designer,2,lexical,9,sansforgetica,second,word,Sure word,1.0,,,1716,67,ok,01-05-2019 00:19
477,2,432,False,Graphic designer,2,lexical,10,sansforgetica,unwitituted,non-word,Probably word,0.0,,,22150,67,ok,01-05-2019 00:19
478,2,432,False,Graphic designer,2,lexical,11,sansforgetica,undustomes,non-word,Probably non-word,1.0,,,24435,67,ok,01-05-2019 00:19
479,2,432,False,Graphic designer,2,lexical,12,sansforgetica,famous,word,Sure word,1.0,,,1626,67,ok,01-05-2019 00:19
480,2,432,False,Graphic designer,2,lexical,13,sansforgetica,imphation,non-word,Sure non-word,1.0,,,10931,67,ok,01-05-2019 00:19
481,2,432,False,Graphic designer,2,lexical,14,sansforgetica,train,word,Sure word,1.0,,,1522,67,ok,01-05-2019 00:19
482,2,432,False,Graphic designer,2,lexical,15,sansforgetica,capital,word,Sure word,1.0,,,2027,67,ok,01-05-2019 00:19
483,2,432,False,Graphic designer,2,lexical,16,sansforgetica,perfory,non-word,Probably non-word,1.0,,,17514,67,ok,01-05-2019 00:19
484,2,432,False,Graphic designer,2,lexical,17,sansforgetica,reart,non-word,Sure non-word,1.0,,,10370,67,ok,01-05-2019 00:19
485,2,432,False,Graphic designer,2,lexical,18,sansforgetica,activities,word,Sure word,1.0,,,2528,67,ok,01-05-2019 00:19
486,2,432,False,Graphic designer,2,lexical,19,sansforgetica,orienuation,non-word,Sure word,0.0,,,14944,67,ok,01-05-2019 00:19
487,2,432,False,Graphic designer,2,lexical,20,sansforgetica,legan,non-word,Probably word,0.0,,,12970,67,ok,01-05-2019 00:19
488,2,432,False,Graphic designer,2,recognition,1,arial,imphation,non-word,Probably seen,1.0,seen,imphation,22972,67,ok,01-05-2019 00:19
489,2,432,False,Graphic designer,2,recognition,2,arial,upbelf,non-word,Sure not seen,1.0,not seen,unwitituted,2424,67,ok,01-05-2019 00:19
490,2,432,False,Graphic designer,2,recognition,3,arial,scheme,word,Sure not seen,1.0,not seen,scene,2620,67,ok,01-05-2019 00:19
491,2,432,False,Graphic designer,2,recognition,4,arial,legetation,non-word,Sure not seen,1.0,not seen,legan,13310,67,ok,01-05-2019 00:19
492,2,432,False,Graphic designer,2,recognition,5,arial,training,word,Sure not seen,1.0,not seen,train,2610,67,ok,01-05-2019 00:19
493,2,432,False,Graphic designer,2,recognition,6,arial,commercial,word,Sure not seen,1.0,not seen,command,2247,67,ok,01-05-2019 00:19
494,2,432,False,Graphic designer,2,recognition,7,arial,economic,word,Sure seen,1.0,seen,economic,1712,67,ok,01-05-2019 00:19
495,2,432,False,Graphic designer,2,recognition,8,arial,activities,word,Sure seen,1.0,seen,activities,1703,67,ok,01-05-2019 00:19
496,2,432,False,Graphic designer,2,recognition,9,arial,second,word,Sure seen,1.0,seen,second,1214,67,ok,01-05-2019 00:19
497,2,432,False,Graphic designer,2,recognition,10,arial,origived,non-word,Sure not seen,1.0,not seen,orienuation,3354,67,ok,01-05-2019 00:19
498,2,432,False,Graphic designer,2,recognition,11,arial,famous,word,Probably not seen,0.0,seen,famous,9536,67,ok,01-05-2019 00:19
499,2,432,False,Graphic designer,2,recognition,12,arial,concessibly,non-word,Sure seen,1.0,seen,concessibly,4669,67,ok,01-05-2019 00:19
500,2,432,False,Graphic designer,2,recognition,13,arial,uneard,non-word,Sure not seen,1.0,not seen,undustomes,2240,67,ok,01-05-2019 00:19
501,2,432,False,Graphic designer,2,recognition,14,arial,ahead,word,Sure not seen,1.0,not seen,agreement,1815,67,ok,01-05-2019 00:19
502,2,432,False,Graphic designer,2,recognition,15,arial,perfory,non-word,Sure seen,1.0,seen,perfory,7757,67,ok,01-05-2019 00:19
503,2,432,False,Graphic designer,2,recognition,16,arial,sisture,non-word,Sure seen,1.0,seen,sisture,1956,67,ok,01-05-2019 00:19
504,2,504,False,Other designer,1,lexical,1,sansforgetica,tommon,non-word,Sure non-word,1.0,,,21690,55,ok,30-04-2019 23:50
505,2,504,False,Other designer,1,lexical,2,sansforgetica,possibility,word,Sure word,1.0,,,2349,55,ok,30-04-2019 23:50
506,2,504,False,Other designer,1,lexical,3,sansforgetica,possiols,non-word,Probably word,0.0,,,3191,55,ok,30-04-2019 23:50
507,2,504,False,Other designer,1,lexical,4,sansforgetica,press,word,Sure word,1.0,,,1347,55,ok,30-04-2019 23:50
508,2,504,False,Other designer,1,lexical,5,sansforgetica,rutongance,non-word,Probably non-word,1.0,,,2153,55,ok,30-04-2019 23:50
509,2,504,False,Other designer,1,lexical,6,sansforgetica,controyed,non-word,Probably word,0.0,,,3160,55,ok,30-04-2019 23:50
510,2,504,False,Other designer,1,lexical,7,sansforgetica,picture,word,Sure word,1.0,,,1341,55,ok,30-04-2019 23:50
511,2,504,False,Other designer,1,lexical,8,sansforgetica,listening,word,Sure word,1.0,,,1004,55,ok,30-04-2019 23:50
512,2,504,False,Other designer,1,lexical,9,sansforgetica,achieved,word,Sure word,1.0,,,1973,55,ok,30-04-2019 23:50
513,2,504,False,Other designer,1,lexical,10,sansforgetica,everything,word,Sure word,1.0,,,868,55,ok,30-04-2019 23:50
514,2,504,False,Other designer,1,lexical,11,sansforgetica,thips,non-word,Sure word,0.0,,,994,55,ok,30-04-2019 23:50
515,2,504,False,Other designer,1,lexical,12,sansforgetica,worry,word,Sure word,1.0,,,1015,55,ok,30-04-2019 23:50
516,2,504,False,Other designer,1,lexical,13,sansforgetica,replogy,non-word,Probably word,0.0,,,2657,55,ok,30-04-2019 23:50
517,2,504,False,Other designer,1,lexical,14,sansforgetica,details,word,Sure word,1.0,,,1062,55,ok,30-04-2019 23:50
518,2,504,False,Other designer,1,lexical,15,sansforgetica,wanted,word,Sure word,1.0,,,964,55,ok,30-04-2019 23:50
519,2,504,False,Other designer,1,lexical,16,sansforgetica,apart,word,Sure word,1.0,,,802,55,ok,30-04-2019 23:50
520,2,504,False,Other designer,1,lexical,17,sansforgetica,opplanation,non-word,Sure word,0.0,,,1284,55,ok,30-04-2019 23:50
521,2,504,False,Other designer,1,lexical,18,sansforgetica,fesorized,non-word,Sure word,0.0,,,1236,55,ok,30-04-2019 23:50
522,2,504,False,Other designer,1,lexical,19,sansforgetica,disarruping,non-word,Probably word,0.0,,,3819,55,ok,30-04-2019 23:50
523,2,504,False,Other designer,1,lexical,20,sansforgetica,chares,non-word,Probably non-word,1.0,,,2388,55,ok,30-04-2019 23:50
524,2,504,False,Other designer,1,recognition,1,arial,worst,word,Sure seen,0.0,not seen,worry,8127,55,ok,30-04-2019 23:50
525,2,504,False,Other designer,1,recognition,2,arial,achieved,word,Sure seen,1.0,seen,achieved,1401,55,ok,30-04-2019 23:50
526,2,504,False,Other designer,1,recognition,3,arial,little,word,Sure seen,0.0,not seen,listening,2069,55,ok,30-04-2019 23:50
527,2,504,False,Other designer,1,recognition,4,arial,evidence,word,Sure seen,0.0,not seen,everything,1113,55,ok,30-04-2019 23:50
528,2,504,False,Other designer,1,recognition,5,arial,press,word,Sure seen,1.0,seen,press,855,55,ok,30-04-2019 23:50
529,2,504,False,Other designer,1,recognition,6,arial,rutongance,non-word,Probably not seen,0.0,seen,rutongance,2024,55,ok,30-04-2019 23:50
530,2,504,False,Other designer,1,recognition,7,arial,replogy,non-word,Probably not seen,0.0,seen,replogy,1527,55,ok,30-04-2019 23:50
531,2,504,False,Other designer,1,recognition,8,arial,fiels,non-word,Sure seen,0.0,not seen,fesorized,1404,55,ok,30-04-2019 23:50
532,2,504,False,Other designer,1,recognition,9,arial,potervation,non-word,Probably seen,0.0,not seen,possiols,1558,55,ok,30-04-2019 23:50
533,2,504,False,Other designer,1,recognition,10,arial,tosing,non-word,Sure not seen,1.0,not seen,tommon,1646,55,ok,30-04-2019 23:50
534,2,504,False,Other designer,1,recognition,11,arial,disarruping,non-word,Sure not seen,0.0,seen,disarruping,1717,55,ok,30-04-2019 23:50
535,2,504,False,Other designer,1,recognition,12,arial,details,word,Sure seen,1.0,seen,details,1213,55,ok,30-04-2019 23:50
536,2,504,False,Other designer,1,recognition,13,arial,wanted,word,Sure seen,1.0,seen,wanted,819,55,ok,30-04-2019 23:50
537,2,504,False,Other designer,1,recognition,14,arial,pieces,word,Sure seen,0.0,not seen,picture,1030,55,ok,30-04-2019 23:50
538,2,504,False,Other designer,1,recognition,15,arial,thips,non-word,Sure seen,1.0,seen,thips,822,55,ok,30-04-2019 23:50
539,2,504,False,Other designer,1,recognition,16,arial,oppormation,non-word,Probably not seen,1.0,not seen,opplanation,5021,55,ok,30-04-2019 23:50
540,2,504,False,Other designer,2,lexical,1,arial,explitition,non-word,Probably non-word,1.0,,,4745,60,very easy to read,30-04-2019 23:50
541,2,504,False,Other designer,2,lexical,2,arial,white,word,Sure word,1.0,,,1291,60,very easy to read,30-04-2019 23:50
542,2,504,False,Other designer,2,lexical,3,arial,imputives,non-word,Probably non-word,1.0,,,1498,60,very easy to read,30-04-2019 23:50
543,2,504,False,Other designer,2,lexical,4,arial,giving,word,Sure word,1.0,,,1177,60,very easy to read,30-04-2019 23:50
544,2,504,False,Other designer,2,lexical,5,arial,impression,word,Sure word,1.0,,,1118,60,very easy to read,30-04-2019 23:50
545,2,504,False,Other designer,2,lexical,6,arial,cuppened,non-word,Probably word,0.0,,,1516,60,very easy to read,30-04-2019 23:50
546,2,504,False,Other designer,2,lexical,7,arial,doweract,non-word,Probably non-word,1.0,,,1350,60,very easy to read,30-04-2019 23:50
547,2,504,False,Other designer,2,lexical,8,arial,thick,word,Sure word,1.0,,,1297,60,very easy to read,30-04-2019 23:50
548,2,504,False,Other designer,2,lexical,9,arial,countions,non-word,Probably word,0.0,,,2073,60,very easy to read,30-04-2019 23:50
549,2,504,False,Other designer,2,lexical,10,arial,anotter,non-word,Probably non-word,1.0,,,1515,60,very easy to read,30-04-2019 23:50
550,2,504,False,Other designer,2,lexical,11,arial,stayed,word,Sure non-word,0.0,,,1946,60,very easy to read,30-04-2019 23:50
551,2,504,False,Other designer,2,lexical,12,arial,dissehons,non-word,Sure non-word,1.0,,,1197,60,very easy to read,30-04-2019 23:50
552,2,504,False,Other designer,2,lexical,13,arial,husband,word,Sure word,1.0,,,1510,60,very easy to read,30-04-2019 23:50
553,2,504,False,Other designer,2,lexical,14,arial,wituraman,non-word,Probably non-word,1.0,,,2467,60,very easy to read,30-04-2019 23:50
554,2,504,False,Other designer,2,lexical,15,arial,verving,non-word,Probably non-word,1.0,,,3036,60,very easy to read,30-04-2019 23:50
555,2,504,False,Other designer,2,lexical,16,arial,stood,word,Sure word,1.0,,,1472,60,very easy to read,30-04-2019 23:50
556,2,504,False,Other designer,2,lexical,17,arial,lower,word,Sure word,1.0,,,1123,60,very easy to read,30-04-2019 23:50
557,2,504,False,Other designer,2,lexical,18,arial,thousands,word,Sure word,1.0,,,907,60,very easy to read,30-04-2019 23:50
558,2,504,False,Other designer,2,lexical,19,arial,velerion,non-word,Probably word,0.0,,,1458,60,very easy to read,30-04-2019 23:50
559,2,504,False,Other designer,2,lexical,20,arial,black,word,Probably word,1.0,,,784,60,very easy to read,30-04-2019 23:50
560,2,504,False,Other designer,2,recognition,1,sansforgetica,imputives,non-word,Probably seen,1.0,seen,imputives,5097,60,very easy to read,30-04-2019 23:50
561,2,504,False,Other designer,2,recognition,2,sansforgetica,curibe,non-word,Sure not seen,1.0,not seen,cuppened,2077,60,very easy to read,30-04-2019 23:50
562,2,504,False,Other designer,2,recognition,3,sansforgetica,husband,word,Sure seen,1.0,seen,husband,1308,60,very easy to read,30-04-2019 23:50
563,2,504,False,Other designer,2,recognition,4,sansforgetica,thing,word,Sure seen,0.0,not seen,thick,1669,60,very easy to read,30-04-2019 23:50
564,2,504,False,Other designer,2,recognition,5,sansforgetica,included,word,Sure seen,0.0,not seen,impression,1337,60,very easy to read,30-04-2019 23:50
565,2,504,False,Other designer,2,recognition,6,sansforgetica,dissehons,non-word,Sure seen,1.0,seen,dissehons,1554,60,very easy to read,30-04-2019 23:50
566,2,504,False,Other designer,2,recognition,7,sansforgetica,coupid,non-word,Sure not seen,1.0,not seen,countions,1712,60,very easy to read,30-04-2019 23:50
567,2,504,False,Other designer,2,recognition,8,sansforgetica,explitition,non-word,Sure seen,1.0,seen,explitition,1915,60,very easy to read,30-04-2019 23:50
568,2,504,False,Other designer,2,recognition,9,sansforgetica,stood,word,Sure seen,1.0,seen,stood,2074,60,very easy to read,30-04-2019 23:50
569,2,504,False,Other designer,2,recognition,10,sansforgetica,anstage,non-word,Sure seen,0.0,not seen,anotter,1301,60,very easy to read,30-04-2019 23:50
570,2,504,False,Other designer,2,recognition,11,sansforgetica,threat,word,Sure not seen,1.0,not seen,thousands,1856,60,very easy to read,30-04-2019 23:50
571,2,504,False,Other designer,2,recognition,12,sansforgetica,verving,non-word,Sure seen,1.0,seen,verving,1422,60,very easy to read,30-04-2019 23:50
572,2,504,False,Other designer,2,recognition,13,sansforgetica,giving,word,Sure seen,1.0,seen,giving,1151,60,very easy to read,30-04-2019 23:50
573,2,504,False,Other designer,2,recognition,14,sansforgetica,steps,word,Sure not seen,1.0,not seen,stayed,1413,60,very easy to read,30-04-2019 23:50
574,2,504,False,Other designer,2,recognition,15,sansforgetica,womed,non-word,Sure not seen,1.0,not seen,wituraman,1309,60,very easy to read,30-04-2019 23:50
575,2,504,False,Other designer,2,recognition,16,sansforgetica,lower,word,Sure seen,1.0,seen,lower,1250,60,very easy to read,30-04-2019 23:50
576,2,576,False,Graphic designer,1,lexical,1,sansforgetica,escape,word,Sure word,1.0,,,2712,64,easy to read,30-04-2019 23:50
577,2,576,False,Graphic designer,1,lexical,2,sansforgetica,sounds,word,Sure word,1.0,,,1090,64,easy to read,30-04-2019 23:50
578,2,576,False,Graphic designer,1,lexical,3,sansforgetica,level,word,Sure word,1.0,,,1019,64,easy to read,30-04-2019 23:50
579,2,576,False,Graphic designer,1,lexical,4,sansforgetica,happlemas,non-word,Probably non-word,1.0,,,5531,64,easy to read,30-04-2019 23:50
580,2,576,False,Graphic designer,1,lexical,5,sansforgetica,glasses,word,Sure word,1.0,,,2660,64,easy to read,30-04-2019 23:50
581,2,576,False,Graphic designer,1,lexical,6,sansforgetica,doing,word,Sure word,1.0,,,990,64,easy to read,30-04-2019 23:50
582,2,576,False,Graphic designer,1,lexical,7,sansforgetica,somewing,non-word,Sure non-word,1.0,,,3780,64,easy to read,30-04-2019 23:50
583,2,576,False,Graphic designer,1,lexical,8,sansforgetica,master,word,Sure word,1.0,,,1071,64,easy to read,30-04-2019 23:50
584,2,576,False,Graphic designer,1,lexical,9,sansforgetica,expeantly,non-word,Sure non-word,1.0,,,3300,64,easy to read,30-04-2019 23:50
585,2,576,False,Graphic designer,1,lexical,10,sansforgetica,attrusive,non-word,Sure non-word,1.0,,,2469,64,easy to read,30-04-2019 23:50
586,2,576,False,Graphic designer,1,lexical,11,sansforgetica,arror,non-word,Sure word,0.0,,,2041,64,easy to read,30-04-2019 23:50
587,2,576,False,Graphic designer,1,lexical,12,sansforgetica,press,word,Sure word,1.0,,,1328,64,easy to read,30-04-2019 23:50
588,2,576,False,Graphic designer,1,lexical,13,sansforgetica,desterly,non-word,Sure non-word,1.0,,,3601,64,easy to read,30-04-2019 23:50
589,2,576,False,Graphic designer,1,lexical,14,sansforgetica,accumplate,non-word,Sure non-word,1.0,,,3130,64,easy to read,30-04-2019 23:50
590,2,576,False,Graphic designer,1,lexical,15,sansforgetica,image,word,Sure word,1.0,,,1770,64,easy to read,30-04-2019 23:50
591,2,576,False,Graphic designer,1,lexical,16,sansforgetica,beliets,non-word,Sure non-word,1.0,,,3351,64,easy to read,30-04-2019 23:50
592,2,576,False,Graphic designer,1,lexical,17,sansforgetica,extent,word,Sure word,1.0,,,1048,64,easy to read,30-04-2019 23:50
593,2,576,False,Graphic designer,1,lexical,18,sansforgetica,finansive,non-word,Sure non-word,1.0,,,1862,64,easy to read,30-04-2019 23:50
594,2,576,False,Graphic designer,1,lexical,19,sansforgetica,mullected,non-word,Sure non-word,1.0,,,2469,64,easy to read,30-04-2019 23:50
595,2,576,False,Graphic designer,1,lexical,20,sansforgetica,pushed,word,Sure word,1.0,,,1469,64,easy to read,30-04-2019 23:50
596,2,576,False,Graphic designer,1,recognition,1,arial,dollars,word,Sure not seen,1.0,not seen,doing,4007,64,easy to read,30-04-2019 23:50
597,2,576,False,Graphic designer,1,recognition,2,arial,attrusive,non-word,Sure seen,1.0,seen,attrusive,1699,64,easy to read,30-04-2019 23:50
598,2,576,False,Graphic designer,1,recognition,3,arial,happlemas,non-word,Sure seen,1.0,seen,happlemas,923,64,easy to read,30-04-2019 23:50
599,2,576,False,Graphic designer,1,recognition,4,arial,accurdes,non-word,Probably not seen,1.0,not seen,accumplate,5849,64,easy to read,30-04-2019 23:50
600,2,576,False,Graphic designer,1,recognition,5,arial,beliets,non-word,Sure seen,1.0,seen,beliets,1810,64,easy to read,30-04-2019 23:50
601,2,576,False,Graphic designer,1,recognition,6,arial,sounds,word,Sure seen,1.0,seen,sounds,860,64,easy to read,30-04-2019 23:50
602,2,576,False,Graphic designer,1,recognition,7,arial,press,word,Sure seen,1.0,seen,press,889,64,easy to read,30-04-2019 23:50
603,2,576,False,Graphic designer,1,recognition,8,arial,desterly,non-word,Sure not seen,0.0,seen,desterly,1669,64,easy to read,30-04-2019 23:50
604,2,576,False,Graphic designer,1,recognition,9,arial,level,word,Sure seen,1.0,seen,level,1162,64,easy to read,30-04-2019 23:50
605,2,576,False,Graphic designer,1,recognition,10,arial,putting,word,Sure not seen,1.0,not seen,pushed,2069,64,easy to read,30-04-2019 23:50
606,2,576,False,Graphic designer,1,recognition,11,arial,murching,non-word,Sure not seen,1.0,not seen,mullected,2433,64,easy to read,30-04-2019 23:50
607,2,576,False,Graphic designer,1,recognition,12,arial,going,word,Probably seen,0.0,not seen,glasses,3147,64,easy to read,30-04-2019 23:50
608,2,576,False,Graphic designer,1,recognition,13,arial,especially,word,Probably not seen,1.0,not seen,escape,3201,64,easy to read,30-04-2019 23:50
609,2,576,False,Graphic designer,1,recognition,14,arial,image,word,Sure seen,1.0,seen,image,990,64,easy to read,30-04-2019 23:50
610,2,576,False,Graphic designer,1,recognition,15,arial,fineraing,non-word,Sure seen,0.0,not seen,finansive,1352,64,easy to read,30-04-2019 23:50
611,2,576,False,Graphic designer,1,recognition,16,arial,sompenize,non-word,Sure not seen,1.0,not seen,somewing,1938,64,easy to read,30-04-2019 23:50
612,2,576,False,Graphic designer,2,lexical,1,arial,fully,word,Sure word,1.0,,,2515,76,very easy to read,30-04-2019 23:50
613,2,576,False,Graphic designer,2,lexical,2,arial,easide,non-word,Sure non-word,1.0,,,1700,76,very easy to read,30-04-2019 23:50
614,2,576,False,Graphic designer,2,lexical,3,arial,brease,non-word,Probably word,0.0,,,2163,76,very easy to read,30-04-2019 23:50
615,2,576,False,Graphic designer,2,lexical,4,arial,basic,word,Sure word,1.0,,,1359,76,very easy to read,30-04-2019 23:50
616,2,576,False,Graphic designer,2,lexical,5,arial,previtment,non-word,Sure non-word,1.0,,,1629,76,very easy to read,30-04-2019 23:50
617,2,576,False,Graphic designer,2,lexical,6,arial,birst,non-word,Probably word,0.0,,,1961,76,very easy to read,30-04-2019 23:50
618,2,576,False,Graphic designer,2,lexical,7,arial,cities,word,Sure word,1.0,,,2499,76,very easy to read,30-04-2019 23:50
619,2,576,False,Graphic designer,2,lexical,8,arial,store,word,Sure word,1.0,,,1270,76,very easy to read,30-04-2019 23:50
620,2,576,False,Graphic designer,2,lexical,9,arial,moved,word,Sure word,1.0,,,880,76,very easy to read,30-04-2019 23:50
621,2,576,False,Graphic designer,2,lexical,10,arial,published,word,Sure word,1.0,,,739,76,very easy to read,30-04-2019 23:50
622,2,576,False,Graphic designer,2,lexical,11,arial,situation,word,Sure word,1.0,,,1201,76,very easy to read,30-04-2019 23:50
623,2,576,False,Graphic designer,2,lexical,12,arial,motter,non-word,Sure non-word,1.0,,,3320,76,very easy to read,30-04-2019 23:50
624,2,576,False,Graphic designer,2,lexical,13,arial,cross,word,Sure word,1.0,,,968,76,very easy to read,30-04-2019 23:50
625,2,576,False,Graphic designer,2,lexical,14,arial,philogrand,non-word,Probably word,0.0,,,2414,76,very easy to read,30-04-2019 23:50
626,2,576,False,Graphic designer,2,lexical,15,arial,arrinst,non-word,Probably word,0.0,,,1668,76,very easy to read,30-04-2019 23:50
627,2,576,False,Graphic designer,2,lexical,16,arial,desposed,non-word,Sure non-word,1.0,,,2219,76,very easy to read,30-04-2019 23:50
628,2,576,False,Graphic designer,2,lexical,17,arial,music,word,Sure word,1.0,,,1052,76,very easy to read,30-04-2019 23:50
629,2,576,False,Graphic designer,2,lexical,18,arial,industrial,word,Sure word,1.0,,,2158,76,very easy to read,30-04-2019 23:50
630,2,576,False,Graphic designer,2,lexical,19,arial,varearing,non-word,Sure non-word,1.0,,,2853,76,very easy to read,30-04-2019 23:50
631,2,576,False,Graphic designer,2,lexical,20,arial,specket,non-word,Sure non-word,1.0,,,2499,76,very easy to read,30-04-2019 23:50
632,2,576,False,Graphic designer,2,recognition,1,sansforgetica,industrial,word,Sure seen,1.0,seen,industrial,1580,76,very easy to read,30-04-2019 23:50
633,2,576,False,Graphic designer,2,recognition,2,sansforgetica,crowd,word,Sure not seen,1.0,not seen,cross,1570,76,very easy to read,30-04-2019 23:50
634,2,576,False,Graphic designer,2,recognition,3,sansforgetica,stories,word,Sure seen,0.0,not seen,store,1261,76,very easy to read,30-04-2019 23:50
635,2,576,False,Graphic designer,2,recognition,4,sansforgetica,physial,non-word,Sure not seen,1.0,not seen,philogrand,1369,76,very easy to read,30-04-2019 23:50
636,2,576,False,Graphic designer,2,recognition,5,sansforgetica,moved,word,Sure seen,1.0,seen,moved,1151,76,very easy to read,30-04-2019 23:50
637,2,576,False,Graphic designer,2,recognition,6,sansforgetica,basis,word,Sure seen,0.0,not seen,basic,1230,76,very easy to read,30-04-2019 23:50
638,2,576,False,Graphic designer,2,recognition,7,sansforgetica,motter,non-word,Sure not seen,0.0,seen,motter,1610,76,very easy to read,30-04-2019 23:50
639,2,576,False,Graphic designer,2,recognition,8,sansforgetica,brease,non-word,Sure seen,1.0,seen,brease,1301,76,very easy to read,30-04-2019 23:50
640,2,576,False,Graphic designer,2,recognition,9,sansforgetica,cities,word,Sure seen,1.0,seen,cities,1999,76,very easy to read,30-04-2019 23:50
641,2,576,False,Graphic designer,2,recognition,10,sansforgetica,desping,non-word,Sure not seen,1.0,not seen,desposed,3251,76,very easy to read,30-04-2019 23:50
642,2,576,False,Graphic designer,2,recognition,11,sansforgetica,spectiation,non-word,Sure seen,0.0,not seen,specket,1621,76,very easy to read,30-04-2019 23:50
643,2,576,False,Graphic designer,2,recognition,12,sansforgetica,varearing,non-word,Probably not seen,0.0,seen,varearing,3999,76,very easy to read,30-04-2019 23:50
644,2,576,False,Graphic designer,2,recognition,13,sansforgetica,eassed,non-word,Probably not seen,1.0,not seen,easide,2370,76,very easy to read,30-04-2019 23:50
645,2,576,False,Graphic designer,2,recognition,14,sansforgetica,arrinst,non-word,Sure seen,1.0,seen,arrinst,1599,76,very easy to read,30-04-2019 23:50
646,2,576,False,Graphic designer,2,recognition,15,sansforgetica,situation,word,Sure seen,1.0,seen,situation,881,76,very easy to read,30-04-2019 23:50
647,2,576,False,Graphic designer,2,recognition,16,sansforgetica,function,word,Sure seen,0.0,not seen,fully,1240,76,very easy to read,30-04-2019 23:50
648,2,648,False,Graphic designer,1,lexical,1,sansforgetica,rivies,non-word,Probably word,0.0,,,6052,58,very easy to read,30-04-2019 22:14
649,2,648,False,Graphic designer,1,lexical,2,sansforgetica,mutomphers,non-word,Probably word,0.0,,,7212,58,very easy to read,30-04-2019 22:14
650,2,648,False,Graphic designer,1,lexical,3,sansforgetica,details,word,Sure word,1.0,,,1908,58,very easy to read,30-04-2019 22:14
651,2,648,False,Graphic designer,1,lexical,4,sansforgetica,suggers,non-word,Probably non-word,1.0,,,4270,58,very easy to read,30-04-2019 22:14
652,2,648,False,Graphic designer,1,lexical,5,sansforgetica,minister,word,Sure word,1.0,,,3233,58,very easy to read,30-04-2019 22:14
653,2,648,False,Graphic designer,1,lexical,6,sansforgetica,aponoments,non-word,Probably non-word,1.0,,,7213,58,very easy to read,30-04-2019 22:14
654,2,648,False,Graphic designer,1,lexical,7,sansforgetica,cried,word,Sure word,1.0,,,1953,58,very easy to read,30-04-2019 22:14
655,2,648,False,Graphic designer,1,lexical,8,sansforgetica,empreases,non-word,Sure word,0.0,,,3221,58,very easy to read,30-04-2019 22:14
656,2,648,False,Graphic designer,1,lexical,9,sansforgetica,development,word,Sure word,1.0,,,2300,58,very easy to read,30-04-2019 22:14
657,2,648,False,Graphic designer,1,lexical,10,sansforgetica,created,word,Sure word,1.0,,,2353,58,very easy to read,30-04-2019 22:14
658,2,648,False,Graphic designer,1,lexical,11,sansforgetica,fruit,word,Sure word,1.0,,,2273,58,very easy to read,30-04-2019 22:14
659,2,648,False,Graphic designer,1,lexical,12,sansforgetica,rivil,non-word,Sure word,0.0,,,1383,58,very easy to read,30-04-2019 22:14
660,2,648,False,Graphic designer,1,lexical,13,sansforgetica,wrong,word,Sure word,1.0,,,1661,58,very easy to read,30-04-2019 22:14
661,2,648,False,Graphic designer,1,lexical,14,sansforgetica,volitical,non-word,Sure word,0.0,,,3930,58,very easy to read,30-04-2019 22:14
662,2,648,False,Graphic designer,1,lexical,15,sansforgetica,curious,word,Sure word,1.0,,,2823,58,very easy to read,30-04-2019 22:14
663,2,648,False,Graphic designer,1,lexical,16,sansforgetica,individual,word,Sure word,1.0,,,1772,58,very easy to read,30-04-2019 22:14
664,2,648,False,Graphic designer,1,lexical,17,sansforgetica,least,word,Sure word,1.0,,,2362,58,very easy to read,30-04-2019 22:14
665,2,648,False,Graphic designer,1,lexical,18,sansforgetica,olded,non-word,Sure word,0.0,,,2989,58,very easy to read,30-04-2019 22:14
666,2,648,False,Graphic designer,1,lexical,19,sansforgetica,drojects,non-word,Sure word,0.0,,,2481,58,very easy to read,30-04-2019 22:14
667,2,648,False,Graphic designer,1,lexical,20,sansforgetica,trambling,non-word,Sure word,0.0,,,4803,58,very easy to read,30-04-2019 22:14
668,2,648,False,Graphic designer,1,recognition,1,arial,rivies,non-word,Sure seen,1.0,seen,rivies,3483,58,very easy to read,30-04-2019 22:14
669,2,648,False,Graphic designer,1,recognition,2,arial,olded,non-word,Sure seen,1.0,seen,olded,1755,58,very easy to read,30-04-2019 22:14
670,2,648,False,Graphic designer,1,recognition,3,arial,create,word,Sure seen,0.0,not seen,created,1365,58,very easy to read,30-04-2019 22:14
671,2,648,False,Graphic designer,1,recognition,4,arial,difference,word,Sure not seen,1.0,not seen,development,3235,58,very easy to read,30-04-2019 22:14
672,2,648,False,Graphic designer,1,recognition,5,arial,fully,word,Sure not seen,1.0,not seen,fruit,2443,58,very easy to read,30-04-2019 22:14
673,2,648,False,Graphic designer,1,recognition,6,arial,rivil,non-word,Sure seen,1.0,seen,rivil,1423,58,very easy to read,30-04-2019 22:14
674,2,648,False,Graphic designer,1,recognition,7,arial,tramines,non-word,Sure seen,0.0,not seen,trambling,1948,58,very easy to read,30-04-2019 22:14
675,2,648,False,Graphic designer,1,recognition,8,arial,minute,word,Sure seen,0.0,not seen,minister,1497,58,very easy to read,30-04-2019 22:14
676,2,648,False,Graphic designer,1,recognition,9,arial,durprology,non-word,Probably not seen,1.0,not seen,drojects,2405,58,very easy to read,30-04-2019 22:14
677,2,648,False,Graphic designer,1,recognition,10,arial,machases,non-word,Probably seen,0.0,not seen,mutomphers,2297,58,very easy to read,30-04-2019 22:14
678,2,648,False,Graphic designer,1,recognition,11,arial,least,word,Sure seen,1.0,seen,least,1159,58,very easy to read,30-04-2019 22:14
679,2,648,False,Graphic designer,1,recognition,12,arial,individual,word,Probably not seen,0.0,seen,individual,1909,58,very easy to read,30-04-2019 22:14
680,2,648,False,Graphic designer,1,recognition,13,arial,volong,non-word,Sure seen,0.0,not seen,volitical,1617,58,very easy to read,30-04-2019 22:14
681,2,648,False,Graphic designer,1,recognition,14,arial,empreases,non-word,Sure seen,1.0,seen,empreases,1119,58,very easy to read,30-04-2019 22:14
682,2,648,False,Graphic designer,1,recognition,15,arial,curious,word,Sure seen,1.0,seen,curious,1115,58,very easy to read,30-04-2019 22:14
683,2,648,False,Graphic designer,1,recognition,16,arial,details,word,Sure seen,1.0,seen,details,970,58,very easy to read,30-04-2019 22:14
684,2,648,False,Graphic designer,2,lexical,1,arial,feepped,non-word,Sure non-word,1.0,,,7635,61,very easy to read,30-04-2019 22:14
685,2,648,False,Graphic designer,2,lexical,2,arial,pritain,non-word,Probably word,0.0,,,4534,61,very easy to read,30-04-2019 22:14
686,2,648,False,Graphic designer,2,lexical,3,arial,early,word,Sure word,1.0,,,1423,61,very easy to read,30-04-2019 22:14
687,2,648,False,Graphic designer,2,lexical,4,arial,being,word,Sure word,1.0,,,4607,61,very easy to read,30-04-2019 22:14
688,2,648,False,Graphic designer,2,lexical,5,arial,entire,word,Sure word,1.0,,,2551,61,very easy to read,30-04-2019 22:14
689,2,648,False,Graphic designer,2,lexical,6,arial,philogrand,non-word,Probably word,0.0,,,3701,61,very easy to read,30-04-2019 22:14
690,2,648,False,Graphic designer,2,lexical,7,arial,every,word,Sure word,1.0,,,2113,61,very easy to read,30-04-2019 22:14
691,2,648,False,Graphic designer,2,lexical,8,arial,unpligatic,non-word,Probably word,0.0,,,6707,61,very easy to read,30-04-2019 22:14
692,2,648,False,Graphic designer,2,lexical,9,arial,source,word,Sure word,1.0,,,6190,61,very easy to read,30-04-2019 22:14
693,2,648,False,Graphic designer,2,lexical,10,arial,altonition,non-word,Probably word,0.0,,,2817,61,very easy to read,30-04-2019 22:14
694,2,648,False,Graphic designer,2,lexical,11,arial,explowing,non-word,Probably word,0.0,,,4837,61,very easy to read,30-04-2019 22:14
695,2,648,False,Graphic designer,2,lexical,12,arial,recently,word,Sure word,1.0,,,2166,61,very easy to read,30-04-2019 22:14
696,2,648,False,Graphic designer,2,lexical,13,arial,newfations,non-word,Probably non-word,1.0,,,5357,61,very easy to read,30-04-2019 22:14
697,2,648,False,Graphic designer,2,lexical,14,arial,audience,word,Sure word,1.0,,,1497,61,very easy to read,30-04-2019 22:14
698,2,648,False,Graphic designer,2,lexical,15,arial,manding,non-word,Probably non-word,1.0,,,3212,61,very easy to read,30-04-2019 22:14
699,2,648,False,Graphic designer,2,lexical,16,arial,syster,non-word,Probably non-word,1.0,,,3541,61,very easy to read,30-04-2019 22:14
700,2,648,False,Graphic designer,2,lexical,17,arial,vegitorken,non-word,Probably non-word,1.0,,,3361,61,very easy to read,30-04-2019 22:14
701,2,648,False,Graphic designer,2,lexical,18,arial,accepted,word,Sure word,1.0,,,1589,61,very easy to read,30-04-2019 22:14
702,2,648,False,Graphic designer,2,lexical,19,arial,suggest,word,Sure word,1.0,,,1296,61,very easy to read,30-04-2019 22:14
703,2,648,False,Graphic designer,2,lexical,20,arial,actions,word,Sure word,1.0,,,1296,61,very easy to read,30-04-2019 22:14
704,2,648,False,Graphic designer,2,recognition,1,sansforgetica,source,word,Sure seen,1.0,seen,source,3569,61,very easy to read,30-04-2019 22:14
705,2,648,False,Graphic designer,2,recognition,2,sansforgetica,audience,word,Sure seen,1.0,seen,audience,1824,61,very easy to read,30-04-2019 22:14
706,2,648,False,Graphic designer,2,recognition,3,sansforgetica,active,word,Sure seen,0.0,not seen,actions,1539,61,very easy to read,30-04-2019 22:14
707,2,648,False,Graphic designer,2,recognition,4,sansforgetica,entirely,word,Sure seen,0.0,not seen,entire,1066,61,very easy to read,30-04-2019 22:14
708,2,648,False,Graphic designer,2,recognition,5,sansforgetica,recognize,word,Probably not seen,1.0,not seen,recently,2168,61,very easy to read,30-04-2019 22:14
709,2,648,False,Graphic designer,2,recognition,6,sansforgetica,vegitorken,non-word,Sure seen,1.0,seen,vegitorken,3453,61,very easy to read,30-04-2019 22:14
710,2,648,False,Graphic designer,2,recognition,7,sansforgetica,accepted,word,Sure seen,1.0,seen,accepted,1224,61,very easy to read,30-04-2019 22:14
711,2,648,False,Graphic designer,2,recognition,8,sansforgetica,manding,non-word,Sure seen,1.0,seen,manding,1032,61,very easy to read,30-04-2019 22:14
712,2,648,False,Graphic designer,2,recognition,9,sansforgetica,newspable,non-word,Sure seen,0.0,not seen,newfations,1100,61,very easy to read,30-04-2019 22:14
713,2,648,False,Graphic designer,2,recognition,10,sansforgetica,philogrand,non-word,Sure seen,1.0,seen,philogrand,1093,61,very easy to read,30-04-2019 22:14
714,2,648,False,Graphic designer,2,recognition,11,sansforgetica,summer,word,Sure not seen,1.0,not seen,suggest,2468,61,very easy to read,30-04-2019 22:14
715,2,648,False,Graphic designer,2,recognition,12,sansforgetica,exprinuous,non-word,Sure not seen,1.0,not seen,explowing,1973,61,very easy to read,30-04-2019 22:14
716,2,648,False,Graphic designer,2,recognition,13,sansforgetica,fenis,non-word,Sure not seen,1.0,not seen,feepped,2270,61,very easy to read,30-04-2019 22:14
717,2,648,False,Graphic designer,2,recognition,14,sansforgetica,pritain,non-word,Sure seen,1.0,seen,pritain,1561,61,very easy to read,30-04-2019 22:14
718,2,648,False,Graphic designer,2,recognition,15,sansforgetica,untin,non-word,Probably not seen,1.0,not seen,unpligatic,1593,61,very easy to read,30-04-2019 22:14
719,2,648,False,Graphic designer,2,recognition,16,sansforgetica,every,word,Sure seen,1.0,seen,every,1239,61,very easy to read,30-04-2019 22:14
720,2,720,False,Other designer,1,lexical,1,arial,choose,word,Sure word,1.0,,,2090,75,very easy to read,30-04-2019 21:18
721,2,720,False,Other designer,1,lexical,2,arial,midonious,non-word,Sure word,0.0,,,2028,75,very easy to read,30-04-2019 21:18
722,2,720,False,Other designer,1,lexical,3,arial,perietail,non-word,Probably non-word,1.0,,,4033,75,very easy to read,30-04-2019 21:18
723,2,720,False,Other designer,1,lexical,4,arial,flesh,word,Probably word,1.0,,,2269,75,very easy to read,30-04-2019 21:18
724,2,720,False,Other designer,1,lexical,5,arial,special,word,Sure word,1.0,,,1512,75,very easy to read,30-04-2019 21:18
725,2,720,False,Other designer,1,lexical,6,arial,althdren,non-word,Probably word,0.0,,,2372,75,very easy to read,30-04-2019 21:18
726,2,720,False,Other designer,1,lexical,7,arial,either,word,Sure word,1.0,,,1632,75,very easy to read,30-04-2019 21:18
727,2,720,False,Other designer,1,lexical,8,arial,strange,word,Sure word,1.0,,,1414,75,very easy to read,30-04-2019 21:18
728,2,720,False,Other designer,1,lexical,9,arial,priend,non-word,Probably word,0.0,,,1989,75,very easy to read,30-04-2019 21:18
729,2,720,False,Other designer,1,lexical,10,arial,ceady,non-word,Sure word,0.0,,,1771,75,very easy to read,30-04-2019 21:18
730,2,720,False,Other designer,1,lexical,11,arial,descussed,non-word,Sure non-word,1.0,,,2543,75,very easy to read,30-04-2019 21:18
731,2,720,False,Other designer,1,lexical,12,arial,classorse,non-word,Probably non-word,1.0,,,1934,75,very easy to read,30-04-2019 21:18
732,2,720,False,Other designer,1,lexical,13,arial,pressure,word,Sure word,1.0,,,1535,75,very easy to read,30-04-2019 21:18
733,2,720,False,Other designer,1,lexical,14,arial,country,word,Sure word,1.0,,,2682,75,very easy to read,30-04-2019 21:18
734,2,720,False,Other designer,1,lexical,15,arial,account,word,Sure word,1.0,,,1350,75,very easy to read,30-04-2019 21:18
735,2,720,False,Other designer,1,lexical,16,arial,walked,word,Sure word,1.0,,,1318,75,very easy to read,30-04-2019 21:18
736,2,720,False,Other designer,1,lexical,17,arial,pushed,word,Sure word,1.0,,,1199,75,very easy to read,30-04-2019 21:18
737,2,720,False,Other designer,1,lexical,18,arial,lithin,non-word,Probably word,0.0,,,1883,75,very easy to read,30-04-2019 21:18
738,2,720,False,Other designer,1,lexical,19,arial,cittes,non-word,Probably non-word,1.0,,,2130,75,very easy to read,30-04-2019 21:18
739,2,720,False,Other designer,1,lexical,20,arial,sepernment,non-word,Probably non-word,1.0,,,1839,75,very easy to read,30-04-2019 21:18
740,2,720,False,Other designer,1,recognition,1,sansforgetica,pushed,word,Sure seen,1.0,seen,pushed,4465,75,very easy to read,30-04-2019 21:18
741,2,720,False,Other designer,1,recognition,2,sansforgetica,milently,non-word,Probably not seen,1.0,not seen,midonious,4210,75,very easy to read,30-04-2019 21:18
742,2,720,False,Other designer,1,recognition,3,sansforgetica,priend,non-word,Probably not seen,0.0,seen,priend,2641,75,very easy to read,30-04-2019 21:18
