,Study ID,Participant ID,Fluent,Designer,Test ID,Test type,Trial ID,Font,Sample,Category,Response,Correct,Seen,Foil,Response time,JoM,JoL,Date
0,2.0,0.0,True,Letter designer,1,lexical,1,arial,public,word,Sure word,1.0,,,2901,65,easy to read,14-04-2019 04:43
1,2.0,0.0,True,Letter designer,1,lexical,2,arial,began,word,Sure word,1.0,,,1955,65,easy to read,14-04-2019 04:43
2,2.0,0.0,True,Letter designer,1,lexical,3,arial,served,word,Sure word,1.0,,,2398,65,easy to read,14-04-2019 04:43
3,2.0,0.0,True,Letter designer,1,lexical,4,arial,dress,word,Sure word,1.0,,,1734,65,easy to read,14-04-2019 04:43
4,2.0,0.0,True,Letter designer,1,lexical,5,arial,guilty,word,Sure word,1.0,,,2334,65,easy to read,14-04-2019 04:43
5,2.0,0.0,True,Letter designer,1,lexical,6,arial,itaters,non-word,Probably non-word,1.0,,,4688,65,easy to read,14-04-2019 04:43
6,2.0,0.0,True,Letter designer,1,lexical,7,arial,autteuvrity,non-word,Sure non-word,1.0,,,1634,65,easy to read,14-04-2019 04:43
7,2.0,0.0,True,Letter designer,1,lexical,8,arial,legulations,non-word,Sure non-word,1.0,,,2648,65,easy to read,14-04-2019 04:43
8,2.0,0.0,True,Letter designer,1,lexical,9,arial,hours,word,Sure word,1.0,,,1948,65,easy to read,14-04-2019 04:43
9,2.0,0.0,True,Letter designer,1,lexical,10,arial,successity,non-word,Probably non-word,1.0,,,3016,65,easy to read,14-04-2019 04:43
10,2.0,0.0,True,Letter designer,1,lexical,11,arial,record,word,Sure word,1.0,,,2086,65,easy to read,14-04-2019 04:43
11,2.0,0.0,True,Letter designer,1,lexical,12,arial,least,word,Sure word,1.0,,,1625,65,easy to read,14-04-2019 04:43
12,2.0,0.0,True,Letter designer,1,lexical,13,arial,forward,word,Sure word,1.0,,,1963,65,easy to read,14-04-2019 04:43
13,2.0,0.0,True,Letter designer,1,lexical,14,arial,morward,non-word,Sure non-word,1.0,,,3721,65,easy to read,14-04-2019 04:43
14,2.0,0.0,True,Letter designer,1,lexical,15,arial,aboup,non-word,Sure non-word,1.0,,,4759,65,easy to read,14-04-2019 04:43
15,2.0,0.0,True,Letter designer,1,lexical,16,arial,espernence,non-word,Probably non-word,1.0,,,2440,65,easy to read,14-04-2019 04:43
16,2.0,0.0,True,Letter designer,1,lexical,17,arial,upbelf,non-word,Probably non-word,1.0,,,4173,65,easy to read,14-04-2019 04:43
17,2.0,0.0,True,Letter designer,1,lexical,18,arial,remernal,non-word,Probably non-word,1.0,,,2223,65,easy to read,14-04-2019 04:43
18,2.0,0.0,True,Letter designer,1,lexical,19,arial,would,word,Sure word,1.0,,,1950,65,easy to read,14-04-2019 04:43
19,2.0,0.0,True,Letter designer,1,lexical,20,arial,clesh,non-word,Probably non-word,1.0,,,3189,65,easy to read,14-04-2019 04:43
20,2.0,0.0,True,Letter designer,1,recognition,1,sansforgetica,beginning,word,Sure not seen,1.0,not seen,began,6138,65,easy to read,14-04-2019 04:43
21,2.0,0.0,True,Letter designer,1,recognition,2,sansforgetica,reduced,word,Sure not seen,1.0,not seen,record,2895,65,easy to read,14-04-2019 04:43
22,2.0,0.0,True,Letter designer,1,recognition,3,sansforgetica,espernence,non-word,Probably seen,1.0,seen,espernence,7551,65,easy to read,14-04-2019 04:43
23,2.0,0.0,True,Letter designer,1,recognition,4,sansforgetica,succuader,non-word,Probably not seen,1.0,not seen,successity,4541,65,easy to read,14-04-2019 04:43
24,2.0,0.0,True,Letter designer,1,recognition,5,sansforgetica,would,word,Sure seen,1.0,seen,would,2019,65,easy to read,14-04-2019 04:43
25,2.0,0.0,True,Letter designer,1,recognition,6,sansforgetica,published,word,Sure not seen,1.0,not seen,public,2115,65,easy to read,14-04-2019 04:43
26,2.0,0.0,True,Letter designer,1,recognition,7,sansforgetica,aboup,non-word,Sure seen,1.0,seen,aboup,2194,65,easy to read,14-04-2019 04:43
27,2.0,0.0,True,Letter designer,1,recognition,8,sansforgetica,legulations,non-word,Sure seen,1.0,seen,legulations,1850,65,easy to read,14-04-2019 04:43
28,2.0,0.0,True,Letter designer,1,recognition,9,sansforgetica,guilty,word,Sure seen,1.0,seen,guilty,1885,65,easy to read,14-04-2019 04:43
29,2.0,0.0,True,Letter designer,1,recognition,10,sansforgetica,remernal,non-word,Probably seen,1.0,seen,remernal,5633,65,easy to read,14-04-2019 04:43
30,2.0,0.0,True,Letter designer,1,recognition,11,sansforgetica,served,word,Probably seen,1.0,seen,served,3069,65,easy to read,14-04-2019 04:43
31,2.0,0.0,True,Letter designer,1,recognition,12,sansforgetica,found,word,Probably not seen,1.0,not seen,forward,4211,65,easy to read,14-04-2019 04:43
32,2.0,0.0,True,Letter designer,1,recognition,13,sansforgetica,auttlefites,non-word,Probably not seen,1.0,not seen,autteuvrity,3769,65,easy to read,14-04-2019 04:43
33,2.0,0.0,True,Letter designer,1,recognition,14,sansforgetica,cloature,non-word,Probably not seen,1.0,not seen,clesh,3840,65,easy to read,14-04-2019 04:43
34,2.0,0.0,True,Letter designer,1,recognition,15,sansforgetica,least,word,Sure seen,1.0,seen,least,1930,65,easy to read,14-04-2019 04:43
35,2.0,0.0,True,Letter designer,1,recognition,16,sansforgetica,immediative,non-word,Probably not seen,1.0,not seen,itaters,4880,65,easy to read,14-04-2019 04:43
36,2.0,0.0,True,Letter designer,2,lexical,1,sansforgetica,bought,word,Sure word,1.0,,,4870,45,difficult to read,14-04-2019 04:43
37,2.0,0.0,True,Letter designer,2,lexical,2,sansforgetica,captain,word,Sure word,1.0,,,1837,45,difficult to read,14-04-2019 04:43
38,2.0,0.0,True,Letter designer,2,lexical,3,sansforgetica,scientific,word,Sure word,1.0,,,2231,45,difficult to read,14-04-2019 04:43
39,2.0,0.0,True,Letter designer,2,lexical,4,sansforgetica,birth,word,Sure word,1.0,,,1685,45,difficult to read,14-04-2019 04:43
40,2.0,0.0,True,Letter designer,2,lexical,5,sansforgetica,retter,non-word,Probably non-word,1.0,,,2201,45,difficult to read,14-04-2019 04:43
41,2.0,0.0,True,Letter designer,2,lexical,6,sansforgetica,became,word,Sure word,1.0,,,1947,45,difficult to read,14-04-2019 04:43
42,2.0,0.0,True,Letter designer,2,lexical,7,sansforgetica,shought,non-word,Probably non-word,1.0,,,3624,45,difficult to read,14-04-2019 04:43
43,2.0,0.0,True,Letter designer,2,lexical,8,sansforgetica,birst,non-word,Probably non-word,1.0,,,2581,45,difficult to read,14-04-2019 04:43
44,2.0,0.0,True,Letter designer,2,lexical,9,sansforgetica,occalution,non-word,Probably non-word,1.0,,,3239,45,difficult to read,14-04-2019 04:43
45,2.0,0.0,True,Letter designer,2,lexical,10,sansforgetica,rutongance,non-word,Probably non-word,1.0,,,3961,45,difficult to read,14-04-2019 04:43
46,2.0,0.0,True,Letter designer,2,lexical,11,sansforgetica,enreloping,non-word,Sure non-word,1.0,,,2483,45,difficult to read,14-04-2019 04:43
47,2.0,0.0,True,Letter designer,2,lexical,12,sansforgetica,horses,word,Sure word,1.0,,,1822,45,difficult to read,14-04-2019 04:43
48,2.0,0.0,True,Letter designer,2,lexical,13,sansforgetica,performance,word,Sure word,1.0,,,2033,45,difficult to read,14-04-2019 04:43
49,2.0,0.0,True,Letter designer,2,lexical,14,sansforgetica,countenth,non-word,Probably non-word,1.0,,,4266,45,difficult to read,14-04-2019 04:43
50,2.0,0.0,True,Letter designer,2,lexical,15,sansforgetica,couled,non-word,Probably non-word,1.0,,,1906,45,difficult to read,14-04-2019 04:43
51,2.0,0.0,True,Letter designer,2,lexical,16,sansforgetica,compared,word,Sure word,1.0,,,1800,45,difficult to read,14-04-2019 04:43
52,2.0,0.0,True,Letter designer,2,lexical,17,sansforgetica,huntain,non-word,Probably non-word,1.0,,,5396,45,difficult to read,14-04-2019 04:43
53,2.0,0.0,True,Letter designer,2,lexical,18,sansforgetica,traditional,word,Sure word,1.0,,,1756,45,difficult to read,14-04-2019 04:43
54,2.0,0.0,True,Letter designer,2,lexical,19,sansforgetica,hanposed,non-word,Sure non-word,1.0,,,2985,45,difficult to read,14-04-2019 04:43
55,2.0,0.0,True,Letter designer,2,lexical,20,sansforgetica,evidence,word,Sure word,1.0,,,1954,45,difficult to read,14-04-2019 04:43
56,2.0,0.0,True,Letter designer,2,recognition,1,arial,because,word,Probably not seen,1.0,not seen,became,4542,45,difficult to read,14-04-2019 04:43
57,2.0,0.0,True,Letter designer,2,recognition,2,arial,couled,non-word,Sure seen,1.0,seen,couled,2701,45,difficult to read,14-04-2019 04:43
58,2.0,0.0,True,Letter designer,2,recognition,3,arial,captain,word,Sure seen,1.0,seen,captain,1788,45,difficult to read,14-04-2019 04:43
59,2.0,0.0,True,Letter designer,2,recognition,4,arial,rutongance,non-word,Probably not seen,0.0,seen,rutongance,2214,45,difficult to read,14-04-2019 04:43
60,2.0,0.0,True,Letter designer,2,recognition,5,arial,shound,non-word,Probably not seen,1.0,not seen,shought,6470,45,difficult to read,14-04-2019 04:43
61,2.0,0.0,True,Letter designer,2,recognition,6,arial,occational,non-word,Probably seen,0.0,not seen,occalution,2615,45,difficult to read,14-04-2019 04:43
62,2.0,0.0,True,Letter designer,2,recognition,7,arial,counticks,non-word,Probably not seen,1.0,not seen,countenth,3996,45,difficult to read,14-04-2019 04:43
63,2.0,0.0,True,Letter designer,2,recognition,8,arial,black,word,Probably not seen,1.0,not seen,birth,2442,45,difficult to read,14-04-2019 04:43
64,2.0,0.0,True,Letter designer,2,recognition,9,arial,performance,word,Sure seen,1.0,seen,performance,1478,45,difficult to read,14-04-2019 04:43
65,2.0,0.0,True,Letter designer,2,recognition,10,arial,traffic,word,Sure not seen,1.0,not seen,traditional,4153,45,difficult to read,14-04-2019 04:43
66,2.0,0.0,True,Letter designer,2,recognition,11,arial,bought,word,Probably seen,1.0,seen,bought,2539,45,difficult to read,14-04-2019 04:43
67,2.0,0.0,True,Letter designer,2,recognition,12,arial,huntain,non-word,Sure seen,1.0,seen,huntain,2467,45,difficult to read,14-04-2019 04:43
68,2.0,0.0,True,Letter designer,2,recognition,13,arial,blace,non-word,Probably not seen,1.0,not seen,birst,2647,45,difficult to read,14-04-2019 04:43
69,2.0,0.0,True,Letter designer,2,recognition,14,arial,exactly,word,Probably not seen,1.0,not seen,evidence,4255,45,difficult to read,14-04-2019 04:43
70,2.0,0.0,True,Letter designer,2,recognition,15,arial,retter,non-word,Probably not seen,0.0,seen,retter,1817,45,difficult to read,14-04-2019 04:43
71,2.0,0.0,True,Letter designer,2,recognition,16,arial,scientific,word,Sure seen,1.0,seen,scientific,1825,45,difficult to read,14-04-2019 04:43
72,2.0,72.0,True,Non-designer,1,lexical,1,sansforgetica,western,word,Sure word,1.0,,,2818,50,difficult to read,14-04-2019 00:55
73,2.0,72.0,True,Non-designer,1,lexical,2,sansforgetica,strike,word,Sure word,1.0,,,1602,50,difficult to read,14-04-2019 00:55
74,2.0,72.0,True,Non-designer,1,lexical,3,sansforgetica,remangth,non-word,Sure non-word,1.0,,,4889,50,difficult to read,14-04-2019 00:55
75,2.0,72.0,True,Non-designer,1,lexical,4,sansforgetica,recent,word,Sure word,1.0,,,1873,50,difficult to read,14-04-2019 00:55
76,2.0,72.0,True,Non-designer,1,lexical,5,sansforgetica,actions,word,Sure word,1.0,,,1669,50,difficult to read,14-04-2019 00:55
77,2.0,72.0,True,Non-designer,1,lexical,6,sansforgetica,birst,non-word,Probably word,0.0,,,3067,50,difficult to read,14-04-2019 00:55
78,2.0,72.0,True,Non-designer,1,lexical,7,sansforgetica,recently,word,Sure word,1.0,,,1114,50,difficult to read,14-04-2019 00:55
79,2.0,72.0,True,Non-designer,1,lexical,8,sansforgetica,tempriation,non-word,Sure word,0.0,,,2424,50,difficult to read,14-04-2019 00:55
80,2.0,72.0,True,Non-designer,1,lexical,9,sansforgetica,develop,word,Sure word,1.0,,,2045,50,difficult to read,14-04-2019 00:55
81,2.0,72.0,True,Non-designer,1,lexical,10,sansforgetica,grened,non-word,Probably non-word,1.0,,,4307,50,difficult to read,14-04-2019 00:55
82,2.0,72.0,True,Non-designer,1,lexical,11,sansforgetica,ultomobile,non-word,Probably non-word,1.0,,,3353,50,difficult to read,14-04-2019 00:55
83,2.0,72.0,True,Non-designer,1,lexical,12,sansforgetica,leacted,non-word,Probably non-word,1.0,,,2746,50,difficult to read,14-04-2019 00:55
84,2.0,72.0,True,Non-designer,1,lexical,13,sansforgetica,vally,non-word,Sure word,0.0,,,2017,50,difficult to read,14-04-2019 00:55
85,2.0,72.0,True,Non-designer,1,lexical,14,sansforgetica,shought,non-word,Probably word,0.0,,,4757,50,difficult to read,14-04-2019 00:55
86,2.0,72.0,True,Non-designer,1,lexical,15,sansforgetica,council,word,Sure word,1.0,,,1993,50,difficult to read,14-04-2019 00:55
87,2.0,72.0,True,Non-designer,1,lexical,16,sansforgetica,organized,word,Sure word,1.0,,,2507,50,difficult to read,14-04-2019 00:55
88,2.0,72.0,True,Non-designer,1,lexical,17,sansforgetica,winnic,non-word,Probably word,0.0,,,5023,50,difficult to read,14-04-2019 00:55
89,2.0,72.0,True,Non-designer,1,lexical,18,sansforgetica,diffesses,non-word,Probably non-word,1.0,,,3703,50,difficult to read,14-04-2019 00:55
90,2.0,72.0,True,Non-designer,1,lexical,19,sansforgetica,pleasure,word,Sure word,1.0,,,2203,50,difficult to read,14-04-2019 00:55
91,2.0,72.0,True,Non-designer,1,lexical,20,sansforgetica,influence,word,Sure word,1.0,,,2230,50,difficult to read,14-04-2019 00:55
92,2.0,72.0,True,Non-designer,1,recognition,1,arial,recent,word,Sure seen,1.0,seen,recent,3130,50,difficult to read,14-04-2019 00:55
93,2.0,72.0,True,Non-designer,1,recognition,2,arial,count,word,Probably not seen,1.0,not seen,council,2492,50,difficult to read,14-04-2019 00:55
94,2.0,72.0,True,Non-designer,1,recognition,3,arial,grened,non-word,Sure seen,1.0,seen,grened,1671,50,difficult to read,14-04-2019 00:55
95,2.0,72.0,True,Non-designer,1,recognition,4,arial,tersuact,non-word,Probably not seen,1.0,not seen,tempriation,2777,50,difficult to read,14-04-2019 00:55
96,2.0,72.0,True,Non-designer,1,recognition,5,arial,strong,word,Probably seen,0.0,not seen,strike,2882,50,difficult to read,14-04-2019 00:55
97,2.0,72.0,True,Non-designer,1,recognition,6,arial,umbrated,non-word,Probably not seen,1.0,not seen,ultomobile,2459,50,difficult to read,14-04-2019 00:55
98,2.0,72.0,True,Non-designer,1,recognition,7,arial,vally,non-word,Sure seen,1.0,seen,vally,1284,50,difficult to read,14-04-2019 00:55
99,2.0,72.0,True,Non-designer,1,recognition,8,arial,original,word,Sure seen,0.0,not seen,organized,1742,50,difficult to read,14-04-2019 00:55
100,2.0,72.0,True,Non-designer,1,recognition,9,arial,winnic,non-word,Sure seen,1.0,seen,winnic,2709,50,difficult to read,14-04-2019 00:55
101,2.0,72.0,True,Non-designer,1,recognition,10,arial,plenty,word,Probably not seen,1.0,not seen,pleasure,1972,50,difficult to read,14-04-2019 00:55
102,2.0,72.0,True,Non-designer,1,recognition,11,arial,shound,non-word,Sure seen,0.0,not seen,shought,2708,50,difficult to read,14-04-2019 00:55
103,2.0,72.0,True,Non-designer,1,recognition,12,arial,recently,word,Sure seen,1.0,seen,recently,1468,50,difficult to read,14-04-2019 00:55
104,2.0,72.0,True,Non-designer,1,recognition,13,arial,develop,word,Probably not seen,0.0,seen,develop,3149,50,difficult to read,14-04-2019 00:55
105,2.0,72.0,True,Non-designer,1,recognition,14,arial,blace,non-word,Sure seen,0.0,not seen,birst,2302,50,difficult to read,14-04-2019 00:55
106,2.0,72.0,True,Non-designer,1,recognition,15,arial,actions,word,Sure not seen,0.0,seen,actions,2759,50,difficult to read,14-04-2019 00:55
107,2.0,72.0,True,Non-designer,1,recognition,16,arial,leacted,non-word,Sure seen,1.0,seen,leacted,2516,50,difficult to read,14-04-2019 00:55
108,2.0,72.0,True,Non-designer,2,lexical,1,arial,cloature,non-word,Probably non-word,1.0,,,5040,50,very easy to read,14-04-2019 00:55
109,2.0,72.0,True,Non-designer,2,lexical,2,arial,notes,word,Sure word,1.0,,,1318,50,very easy to read,14-04-2019 00:55
110,2.0,72.0,True,Non-designer,2,lexical,3,arial,practice,word,Sure word,1.0,,,1532,50,very easy to read,14-04-2019 00:55
111,2.0,72.0,True,Non-designer,2,lexical,4,arial,watching,word,Sure word,1.0,,,1375,50,very easy to read,14-04-2019 00:55
112,2.0,72.0,True,Non-designer,2,lexical,5,arial,compritable,non-word,Sure non-word,1.0,,,3220,50,very easy to read,14-04-2019 00:55
113,2.0,72.0,True,Non-designer,2,lexical,6,arial,numals,non-word,Probably non-word,1.0,,,2930,50,very easy to read,14-04-2019 00:55
114,2.0,72.0,True,Non-designer,2,lexical,7,arial,outting,non-word,Probably word,0.0,,,2800,50,very easy to read,14-04-2019 00:55
115,2.0,72.0,True,Non-designer,2,lexical,8,arial,sechniall,non-word,Sure non-word,1.0,,,2183,50,very easy to read,14-04-2019 00:55
116,2.0,72.0,True,Non-designer,2,lexical,9,arial,plastic,word,Sure word,1.0,,,1677,50,very easy to read,14-04-2019 00:55
117,2.0,72.0,True,Non-designer,2,lexical,10,arial,likely,word,Sure word,1.0,,,1265,50,very easy to read,14-04-2019 00:55
118,2.0,72.0,True,Non-designer,2,lexical,11,arial,suronder,non-word,Sure non-word,1.0,,,2625,50,very easy to read,14-04-2019 00:55
119,2.0,72.0,True,Non-designer,2,lexical,12,arial,plenty,word,Sure word,1.0,,,1174,50,very easy to read,14-04-2019 00:55
120,2.0,72.0,True,Non-designer,2,lexical,13,arial,oppech,non-word,Sure non-word,1.0,,,2702,50,very easy to read,14-04-2019 00:55
121,2.0,72.0,True,Non-designer,2,lexical,14,arial,crisis,word,Sure word,1.0,,,1196,50,very easy to read,14-04-2019 00:55
122,2.0,72.0,True,Non-designer,2,lexical,15,arial,looking,word,Sure word,1.0,,,995,50,very easy to read,14-04-2019 00:55
123,2.0,72.0,True,Non-designer,2,lexical,16,arial,althdren,non-word,Sure non-word,1.0,,,2940,50,very easy to read,14-04-2019 00:55
124,2.0,72.0,True,Non-designer,2,lexical,17,arial,commishors,non-word,Probably non-word,1.0,,,3066,50,very easy to read,14-04-2019 00:55
125,2.0,72.0,True,Non-designer,2,lexical,18,arial,therinder,non-word,Sure non-word,1.0,,,2918,50,very easy to read,14-04-2019 00:55
126,2.0,72.0,True,Non-designer,2,lexical,19,arial,production,word,Sure word,1.0,,,1099,50,very easy to read,14-04-2019 00:55
127,2.0,72.0,True,Non-designer,2,lexical,20,arial,individual,word,Sure word,1.0,,,1801,50,very easy to read,14-04-2019 00:55
128,2.0,72.0,True,Non-designer,2,recognition,1,sansforgetica,therinder,non-word,Sure seen,1.0,seen,therinder,4675,50,very easy to read,14-04-2019 00:55
129,2.0,72.0,True,Non-designer,2,recognition,2,sansforgetica,likely,word,Sure seen,1.0,seen,likely,1734,50,very easy to read,14-04-2019 00:55
130,2.0,72.0,True,Non-designer,2,recognition,3,sansforgetica,looking,word,Sure seen,1.0,seen,looking,3189,50,very easy to read,14-04-2019 00:55
131,2.0,72.0,True,Non-designer,2,recognition,4,sansforgetica,collainess,non-word,Sure not seen,1.0,not seen,cloature,3360,50,very easy to read,14-04-2019 00:55
132,2.0,72.0,True,Non-designer,2,recognition,5,sansforgetica,commishors,non-word,Sure seen,1.0,seen,commishors,2074,50,very easy to read,14-04-2019 00:55
133,2.0,72.0,True,Non-designer,2,recognition,6,sansforgetica,compritable,non-word,Probably seen,1.0,seen,compritable,4841,50,very easy to read,14-04-2019 00:55
134,2.0,72.0,True,Non-designer,2,recognition,7,sansforgetica,production,word,Probably seen,1.0,seen,production,2258,50,very easy to read,14-04-2019 00:55
135,2.0,72.0,True,Non-designer,2,recognition,8,sansforgetica,industrial,word,Sure not seen,1.0,not seen,individual,1998,50,very easy to read,14-04-2019 00:55
136,2.0,72.0,True,Non-designer,2,recognition,9,sansforgetica,played,word,Sure not seen,1.0,not seen,plastic,2361,50,very easy to read,14-04-2019 00:55
137,2.0,72.0,True,Non-designer,2,recognition,10,sansforgetica,althount,non-word,Sure seen,0.0,not seen,althdren,1885,50,very easy to read,14-04-2019 00:55
138,2.0,72.0,True,Non-designer,2,recognition,11,sansforgetica,opperal,non-word,Sure not seen,1.0,not seen,oppech,2276,50,very easy to read,14-04-2019 00:55
139,2.0,72.0,True,Non-designer,2,recognition,12,sansforgetica,plenty,word,Sure seen,1.0,seen,plenty,1456,50,very easy to read,14-04-2019 00:55
140,2.0,72.0,True,Non-designer,2,recognition,13,sansforgetica,sechniall,non-word,Probably seen,1.0,seen,sechniall,4158,50,very easy to read,14-04-2019 00:55
141,2.0,72.0,True,Non-designer,2,recognition,14,sansforgetica,water,word,Sure not seen,1.0,not seen,watching,1993,50,very easy to read,14-04-2019 00:55
142,2.0,72.0,True,Non-designer,2,recognition,15,sansforgetica,nothing,word,Sure not seen,1.0,not seen,notes,3008,50,very easy to read,14-04-2019 00:55
143,2.0,72.0,True,Non-designer,2,recognition,16,sansforgetica,overible,non-word,Sure not seen,1.0,not seen,outting,2271,50,very easy to read,14-04-2019 00:55
144,2.0,144.0,True,Non-designer,1,lexical,1,sansforgetica,treated,word,Sure word,1.0,,,2362,70,ok,14-04-2019 00:34
145,2.0,144.0,True,Non-designer,1,lexical,2,sansforgetica,neiminate,non-word,Sure non-word,1.0,,,4682,70,ok,14-04-2019 00:34
146,2.0,144.0,True,Non-designer,1,lexical,3,sansforgetica,claim,word,Sure word,1.0,,,1726,70,ok,14-04-2019 00:34
147,2.0,144.0,True,Non-designer,1,lexical,4,sansforgetica,centent,non-word,Sure non-word,1.0,,,2756,70,ok,14-04-2019 00:34
148,2.0,144.0,True,Non-designer,1,lexical,5,sansforgetica,medgy,non-word,Sure non-word,1.0,,,1403,70,ok,14-04-2019 00:34
149,2.0,144.0,True,Non-designer,1,lexical,6,sansforgetica,specket,non-word,Sure non-word,1.0,,,1691,70,ok,14-04-2019 00:34
150,2.0,144.0,True,Non-designer,1,lexical,7,sansforgetica,interest,word,Sure word,1.0,,,1428,70,ok,14-04-2019 00:34
151,2.0,144.0,True,Non-designer,1,lexical,8,sansforgetica,laucied,non-word,Sure non-word,1.0,,,3245,70,ok,14-04-2019 00:34
152,2.0,144.0,True,Non-designer,1,lexical,9,sansforgetica,explaign,non-word,Sure non-word,1.0,,,1987,70,ok,14-04-2019 00:34
153,2.0,144.0,True,Non-designer,1,lexical,10,sansforgetica,leader,word,Sure word,1.0,,,1589,70,ok,14-04-2019 00:34
154,2.0,144.0,True,Non-designer,1,lexical,11,sansforgetica,glizagely,non-word,Sure non-word,1.0,,,1809,70,ok,14-04-2019 00:34
155,2.0,144.0,True,Non-designer,1,lexical,12,sansforgetica,reaction,word,Sure word,1.0,,,1396,70,ok,14-04-2019 00:34
156,2.0,144.0,True,Non-designer,1,lexical,13,sansforgetica,suppoing,non-word,Probably non-word,1.0,,,4584,70,ok,14-04-2019 00:34
157,2.0,144.0,True,Non-designer,1,lexical,14,sansforgetica,married,word,Sure word,1.0,,,1347,70,ok,14-04-2019 00:34
158,2.0,144.0,True,Non-designer,1,lexical,15,sansforgetica,compritable,non-word,Sure non-word,1.0,,,3772,70,ok,14-04-2019 00:34
159,2.0,144.0,True,Non-designer,1,lexical,16,sansforgetica,tonight,word,Sure word,1.0,,,1368,70,ok,14-04-2019 00:34
160,2.0,144.0,True,Non-designer,1,lexical,17,sansforgetica,least,word,Sure word,1.0,,,2335,70,ok,14-04-2019 00:34
161,2.0,144.0,True,Non-designer,1,lexical,18,sansforgetica,gazark,non-word,Probably non-word,1.0,,,3325,70,ok,14-04-2019 00:34
162,2.0,144.0,True,Non-designer,1,lexical,19,sansforgetica,beauty,word,Sure word,1.0,,,1910,70,ok,14-04-2019 00:34
163,2.0,144.0,True,Non-designer,1,lexical,20,sansforgetica,lower,word,Sure word,1.0,,,1586,70,ok,14-04-2019 00:34
164,2.0,144.0,True,Non-designer,1,recognition,1,arial,specket,non-word,Sure seen,1.0,seen,specket,2112,70,ok,14-04-2019 00:34
165,2.0,144.0,True,Non-designer,1,recognition,2,arial,centent,non-word,Sure seen,1.0,seen,centent,1213,70,ok,14-04-2019 00:34
166,2.0,144.0,True,Non-designer,1,recognition,3,arial,interesting,word,Sure seen,0.0,not seen,interest,1420,70,ok,14-04-2019 00:34
167,2.0,144.0,True,Non-designer,1,recognition,4,arial,lunch,word,Sure not seen,1.0,not seen,lower,2175,70,ok,14-04-2019 00:34
168,2.0,144.0,True,Non-designer,1,recognition,5,arial,gnaning,non-word,Sure not seen,1.0,not seen,glizagely,1420,70,ok,14-04-2019 00:34
169,2.0,144.0,True,Non-designer,1,recognition,6,arial,reaction,word,Probably seen,1.0,seen,reaction,3634,70,ok,14-04-2019 00:34
170,2.0,144.0,True,Non-designer,1,recognition,7,arial,gazark,non-word,Sure seen,1.0,seen,gazark,1363,70,ok,14-04-2019 00:34
171,2.0,144.0,True,Non-designer,1,recognition,8,arial,meeterts,non-word,Sure not seen,1.0,not seen,medgy,1961,70,ok,14-04-2019 00:34
172,2.0,144.0,True,Non-designer,1,recognition,9,arial,claim,word,Sure seen,1.0,seen,claim,1644,70,ok,14-04-2019 00:34
173,2.0,144.0,True,Non-designer,1,recognition,10,arial,tonight,word,Sure seen,1.0,seen,tonight,977,70,ok,14-04-2019 00:34
174,2.0,144.0,True,Non-designer,1,recognition,11,arial,explanented,non-word,Sure not seen,1.0,not seen,explaign,3875,70,ok,14-04-2019 00:34
175,2.0,144.0,True,Non-designer,1,recognition,12,arial,leaves,word,Sure not seen,1.0,not seen,least,1587,70,ok,14-04-2019 00:34
176,2.0,144.0,True,Non-designer,1,recognition,13,arial,massive,word,Sure not seen,1.0,not seen,married,997,70,ok,14-04-2019 00:34
177,2.0,144.0,True,Non-designer,1,recognition,14,arial,treated,word,Probably seen,1.0,seen,treated,1680,70,ok,14-04-2019 00:34
178,2.0,144.0,True,Non-designer,1,recognition,15,arial,laucied,non-word,Sure seen,1.0,seen,laucied,1442,70,ok,14-04-2019 00:34
179,2.0,144.0,True,Non-designer,1,recognition,16,arial,surcenters,non-word,Probably not seen,1.0,not seen,suppoing,2450,70,ok,14-04-2019 00:34
180,2.0,144.0,True,Non-designer,2,lexical,1,arial,clesh,non-word,Probably non-word,1.0,,,7885,74,very easy to read,14-04-2019 00:34
181,2.0,144.0,True,Non-designer,2,lexical,2,arial,thouggle,non-word,Sure non-word,1.0,,,3167,74,very easy to read,14-04-2019 00:34
182,2.0,144.0,True,Non-designer,2,lexical,3,arial,parts,word,Sure word,1.0,,,1602,74,very easy to read,14-04-2019 00:34
183,2.0,144.0,True,Non-designer,2,lexical,4,arial,recently,word,Sure word,1.0,,,1806,74,very easy to read,14-04-2019 00:34
184,2.0,144.0,True,Non-designer,2,lexical,5,arial,deterienth,non-word,Sure non-word,1.0,,,2858,74,very easy to read,14-04-2019 00:34
185,2.0,144.0,True,Non-designer,2,lexical,6,arial,decade,word,Sure word,1.0,,,1436,74,very easy to read,14-04-2019 00:34
186,2.0,144.0,True,Non-designer,2,lexical,7,arial,computer,word,Sure word,1.0,,,856,74,very easy to read,14-04-2019 00:34
187,2.0,144.0,True,Non-designer,2,lexical,8,arial,takes,word,Sure word,1.0,,,896,74,very easy to read,14-04-2019 00:34
188,2.0,144.0,True,Non-designer,2,lexical,9,arial,afrifite,non-word,Probably non-word,1.0,,,2029,74,very easy to read,14-04-2019 00:34
189,2.0,144.0,True,Non-designer,2,lexical,10,arial,tommon,non-word,Probably non-word,1.0,,,1235,74,very easy to read,14-04-2019 00:34
190,2.0,144.0,True,Non-designer,2,lexical,11,arial,highly,word,Sure word,1.0,,,2835,74,very easy to read,14-04-2019 00:34
191,2.0,144.0,True,Non-designer,2,lexical,12,arial,promatic,non-word,Probably word,0.0,,,2266,74,very easy to read,14-04-2019 00:34
192,2.0,144.0,True,Non-designer,2,lexical,13,arial,playing,word,Sure word,1.0,,,1269,74,very easy to read,14-04-2019 00:34
193,2.0,144.0,True,Non-designer,2,lexical,14,arial,covered,word,Sure word,1.0,,,1757,74,very easy to read,14-04-2019 00:34
194,2.0,144.0,True,Non-designer,2,lexical,15,arial,independent,word,Sure word,1.0,,,1516,74,very easy to read,14-04-2019 00:34
195,2.0,144.0,True,Non-designer,2,lexical,16,arial,faitain,non-word,Probably non-word,1.0,,,4538,74,very easy to read,14-04-2019 00:34
196,2.0,144.0,True,Non-designer,2,lexical,17,arial,worls,non-word,Probably non-word,1.0,,,2254,74,very easy to read,14-04-2019 00:34
197,2.0,144.0,True,Non-designer,2,lexical,18,arial,outel,non-word,Probably word,0.0,,,2119,74,very easy to read,14-04-2019 00:34
198,2.0,144.0,True,Non-designer,2,lexical,19,arial,streets,word,Sure word,1.0,,,1253,74,very easy to read,14-04-2019 00:34
199,2.0,144.0,True,Non-designer,2,lexical,20,arial,favies,non-word,Probably word,0.0,,,1972,74,very easy to read,14-04-2019 00:34
200,2.0,144.0,True,Non-designer,2,recognition,1,sansforgetica,promatic,non-word,Probably seen,1.0,seen,promatic,2606,74,very easy to read,14-04-2019 00:34
201,2.0,144.0,True,Non-designer,2,recognition,2,sansforgetica,worwars,non-word,Sure not seen,1.0,not seen,worls,1873,74,very easy to read,14-04-2019 00:34
202,2.0,144.0,True,Non-designer,2,recognition,3,sansforgetica,devulaing,non-word,Sure not seen,1.0,not seen,deterienth,1794,74,very easy to read,14-04-2019 00:34
203,2.0,144.0,True,Non-designer,2,recognition,4,sansforgetica,covered,word,Sure seen,1.0,seen,covered,1618,74,very easy to read,14-04-2019 00:34
204,2.0,144.0,True,Non-designer,2,recognition,5,sansforgetica,clesh,non-word,Sure seen,1.0,seen,clesh,1225,74,very easy to read,14-04-2019 00:34
205,2.0,144.0,True,Non-designer,2,recognition,6,sansforgetica,thouggle,non-word,Sure seen,1.0,seen,thouggle,885,74,very easy to read,14-04-2019 00:34
206,2.0,144.0,True,Non-designer,2,recognition,7,sansforgetica,takes,word,Probably seen,1.0,seen,takes,6615,74,very easy to read,14-04-2019 00:34
207,2.0,144.0,True,Non-designer,2,recognition,8,sansforgetica,pleased,word,Probably not seen,1.0,not seen,playing,2265,74,very easy to read,14-04-2019 00:34
208,2.0,144.0,True,Non-designer,2,recognition,9,sansforgetica,feanspore,non-word,Sure not seen,1.0,not seen,favies,1631,74,very easy to read,14-04-2019 00:34
209,2.0,144.0,True,Non-designer,2,recognition,10,sansforgetica,highly,word,Sure seen,1.0,seen,highly,1559,74,very easy to read,14-04-2019 00:34
210,2.0,144.0,True,Non-designer,2,recognition,11,sansforgetica,individual,word,Sure not seen,1.0,not seen,independent,2073,74,very easy to read,14-04-2019 00:34
211,2.0,144.0,True,Non-designer,2,recognition,12,sansforgetica,decided,word,Sure not seen,1.0,not seen,decade,1415,74,very easy to read,14-04-2019 00:34
212,2.0,144.0,True,Non-designer,2,recognition,13,sansforgetica,recently,word,Sure seen,1.0,seen,recently,1386,74,very easy to read,14-04-2019 00:34
213,2.0,144.0,True,Non-designer,2,recognition,14,sansforgetica,outel,non-word,Sure seen,1.0,seen,outel,987,74,very easy to read,14-04-2019 00:34
214,2.0,144.0,True,Non-designer,2,recognition,15,sansforgetica,tosing,non-word,Sure not seen,1.0,not seen,tommon,1585,74,very easy to read,14-04-2019 00:34
215,2.0,144.0,True,Non-designer,2,recognition,16,sansforgetica,concern,word,Sure not seen,1.0,not seen,computer,2861,74,very easy to read,14-04-2019 00:34
216,2.0,216.0,True,Letter designer,1,lexical,1,arial,dwayed,non-word,Probably non-word,1.0,,,3204,26,easy to read,14-04-2019 00:26
217,2.0,216.0,True,Letter designer,1,lexical,2,arial,chares,non-word,Probably non-word,1.0,,,1782,26,easy to read,14-04-2019 00:26
218,2.0,216.0,True,Letter designer,1,lexical,3,arial,scene,word,Sure word,1.0,,,1639,26,easy to read,14-04-2019 00:26
219,2.0,216.0,True,Letter designer,1,lexical,4,arial,strashism,non-word,Probably non-word,1.0,,,2321,26,easy to read,14-04-2019 00:26
220,2.0,216.0,True,Letter designer,1,lexical,5,arial,husbage,non-word,Probably non-word,1.0,,,1811,26,easy to read,14-04-2019 00:26
221,2.0,216.0,True,Letter designer,1,lexical,6,arial,eviable,non-word,Probably non-word,1.0,,,3868,26,easy to read,14-04-2019 00:26
222,2.0,216.0,True,Letter designer,1,lexical,7,arial,cerfested,non-word,Probably non-word,1.0,,,1923,26,easy to read,14-04-2019 00:26
223,2.0,216.0,True,Letter designer,1,lexical,8,arial,stared,word,Sure word,1.0,,,1733,26,easy to read,14-04-2019 00:26
224,2.0,216.0,True,Letter designer,1,lexical,9,arial,awful,word,Sure word,1.0,,,1954,26,easy to read,14-04-2019 00:26
225,2.0,216.0,True,Letter designer,1,lexical,10,arial,during,word,Sure word,1.0,,,1025,26,easy to read,14-04-2019 00:26
226,2.0,216.0,True,Letter designer,1,lexical,11,arial,grass,word,Sure word,1.0,,,975,26,easy to read,14-04-2019 00:26
227,2.0,216.0,True,Letter designer,1,lexical,12,arial,arrearature,non-word,Probably non-word,1.0,,,3602,26,easy to read,14-04-2019 00:26
228,2.0,216.0,True,Letter designer,1,lexical,13,arial,someone,word,Sure word,1.0,,,1570,26,easy to read,14-04-2019 00:26
229,2.0,216.0,True,Letter designer,1,lexical,14,arial,assolution,non-word,Probably non-word,1.0,,,2484,26,easy to read,14-04-2019 00:26
230,2.0,216.0,True,Letter designer,1,lexical,15,arial,interest,word,Sure word,1.0,,,1655,26,easy to read,14-04-2019 00:26
231,2.0,216.0,True,Letter designer,1,lexical,16,arial,numals,non-word,Probably non-word,1.0,,,2016,26,easy to read,14-04-2019 00:26
232,2.0,216.0,True,Letter designer,1,lexical,17,arial,soldiers,word,Sure word,1.0,,,1586,26,easy to read,14-04-2019 00:26
233,2.0,216.0,True,Letter designer,1,lexical,18,arial,mastruntion,non-word,Probably non-word,1.0,,,2774,26,easy to read,14-04-2019 00:26
234,2.0,216.0,True,Letter designer,1,lexical,19,arial,wearing,word,Sure word,1.0,,,1710,26,easy to read,14-04-2019 00:26
235,2.0,216.0,True,Letter designer,1,lexical,20,arial,older,word,Sure word,1.0,,,1790,26,easy to read,14-04-2019 00:26
236,2.0,216.0,True,Letter designer,1,recognition,1,sansforgetica,during,word,Sure seen,1.0,seen,during,3961,26,easy to read,14-04-2019 00:26
237,2.0,216.0,True,Letter designer,1,recognition,2,sansforgetica,hysturably,non-word,Sure not seen,1.0,not seen,husbage,2305,26,easy to read,14-04-2019 00:26
238,2.0,216.0,True,Letter designer,1,recognition,3,sansforgetica,eviderood,non-word,Sure not seen,1.0,not seen,eviable,3397,26,easy to read,14-04-2019 00:26
239,2.0,216.0,True,Letter designer,1,recognition,4,sansforgetica,interesting,word,Probably not seen,1.0,not seen,interest,3734,26,easy to read,14-04-2019 00:26
240,2.0,216.0,True,Letter designer,1,recognition,5,sansforgetica,mastruntion,non-word,Sure not seen,0.0,seen,mastruntion,2282,26,easy to read,14-04-2019 00:26
241,2.0,216.0,True,Letter designer,1,recognition,6,sansforgetica,assues,non-word,Sure not seen,1.0,not seen,assolution,1836,26,easy to read,14-04-2019 00:26
242,2.0,216.0,True,Letter designer,1,recognition,7,sansforgetica,chason,non-word,Sure not seen,1.0,not seen,chares,3688,26,easy to read,14-04-2019 00:26
243,2.0,216.0,True,Letter designer,1,recognition,8,sansforgetica,weather,word,Sure not seen,1.0,not seen,wearing,1296,26,easy to read,14-04-2019 00:26
244,2.0,216.0,True,Letter designer,1,recognition,9,sansforgetica,dwayed,non-word,Probably seen,1.0,seen,dwayed,3868,26,easy to read,14-04-2019 00:26
245,2.0,216.0,True,Letter designer,1,recognition,10,sansforgetica,grass,word,Sure seen,1.0,seen,grass,1719,26,easy to read,14-04-2019 00:26
246,2.0,216.0,True,Letter designer,1,recognition,11,sansforgetica,cerfested,non-word,Sure seen,1.0,seen,cerfested,2076,26,easy to read,14-04-2019 00:26
247,2.0,216.0,True,Letter designer,1,recognition,12,sansforgetica,opened,word,Sure not seen,1.0,not seen,older,2603,26,easy to read,14-04-2019 00:26
248,2.0,216.0,True,Letter designer,1,recognition,13,sansforgetica,awful,word,Sure seen,1.0,seen,awful,2219,26,easy to read,14-04-2019 00:26
249,2.0,216.0,True,Letter designer,1,recognition,14,sansforgetica,stared,word,Sure seen,1.0,seen,stared,2710,26,easy to read,14-04-2019 00:26
250,2.0,216.0,True,Letter designer,1,recognition,15,sansforgetica,arrearature,non-word,Probably not seen,0.0,seen,arrearature,4454,26,easy to read,14-04-2019 00:26
251,2.0,216.0,True,Letter designer,1,recognition,16,sansforgetica,solution,word,Probably not seen,1.0,not seen,soldiers,2852,26,easy to read,14-04-2019 00:26
252,2.0,216.0,True,Letter designer,2,lexical,1,sansforgetica,docionating,non-word,Probably non-word,1.0,,,5595,50,difficult to read,14-04-2019 00:26
253,2.0,216.0,True,Letter designer,2,lexical,2,sansforgetica,involved,word,Sure word,1.0,,,1970,50,difficult to read,14-04-2019 00:26
254,2.0,216.0,True,Letter designer,2,lexical,3,sansforgetica,spite,word,Sure word,1.0,,,2265,50,difficult to read,14-04-2019 00:26
255,2.0,216.0,True,Letter designer,2,lexical,4,sansforgetica,irrection,non-word,Probably non-word,1.0,,,3312,50,difficult to read,14-04-2019 00:26
256,2.0,216.0,True,Letter designer,2,lexical,5,sansforgetica,plants,word,Sure word,1.0,,,1780,50,difficult to read,14-04-2019 00:26
257,2.0,216.0,True,Letter designer,2,lexical,6,sansforgetica,guatiammer,non-word,Probably non-word,1.0,,,7921,50,difficult to read,14-04-2019 00:26
258,2.0,216.0,True,Letter designer,2,lexical,7,sansforgetica,worwars,non-word,Sure non-word,1.0,,,4360,50,difficult to read,14-04-2019 00:26
259,2.0,216.0,True,Letter designer,2,lexical,8,sansforgetica,increasing,word,Sure word,1.0,,,1828,50,difficult to read,14-04-2019 00:26
260,2.0,216.0,True,Letter designer,2,lexical,9,sansforgetica,trutal,non-word,Sure non-word,1.0,,,2664,50,difficult to read,14-04-2019 00:26
261,2.0,216.0,True,Letter designer,2,lexical,10,sansforgetica,undefined,word,Sure non-word,0.0,,,7664,50,difficult to read,14-04-2019 00:26
262,2.0,216.0,True,Letter designer,2,lexical,11,sansforgetica,partly,word,Sure word,1.0,,,1790,50,difficult to read,14-04-2019 00:26
263,2.0,216.0,True,Letter designer,2,lexical,12,sansforgetica,undustomes,non-word,Sure non-word,1.0,,,4951,50,difficult to read,14-04-2019 00:26
264,2.0,216.0,True,Letter designer,2,lexical,13,sansforgetica,depending,non-word,Sure word,0.0,,,1689,50,difficult to read,14-04-2019 00:26
265,2.0,216.0,True,Letter designer,2,lexical,14,sansforgetica,murder,word,Sure word,1.0,,,2477,50,difficult to read,14-04-2019 00:26
266,2.0,216.0,True,Letter designer,2,lexical,15,sansforgetica,guars,non-word,Probably non-word,1.0,,,2423,50,difficult to read,14-04-2019 00:26
267,2.0,216.0,True,Letter designer,2,lexical,16,sansforgetica,empty,word,Sure word,1.0,,,1585,50,difficult to read,14-04-2019 00:26
268,2.0,216.0,True,Letter designer,2,lexical,17,sansforgetica,getting,word,Sure word,1.0,,,2334,50,difficult to read,14-04-2019 00:26
269,2.0,216.0,True,Letter designer,2,lexical,18,sansforgetica,seteriship,non-word,Probably non-word,1.0,,,4360,50,difficult to read,14-04-2019 00:26
270,2.0,216.0,True,Letter designer,2,lexical,19,sansforgetica,check,word,Sure word,1.0,,,1736,50,difficult to read,14-04-2019 00:26
271,2.0,216.0,True,Letter designer,2,lexical,20,sansforgetica,conventment,non-word,Probably non-word,1.0,,,4640,50,difficult to read,14-04-2019 00:26
272,2.0,216.0,True,Letter designer,2,recognition,1,arial,ended,word,Sure not seen,1.0,not seen,empty,6718,50,difficult to read,14-04-2019 00:26
273,2.0,216.0,True,Letter designer,2,recognition,2,arial,spite,word,Sure seen,1.0,seen,spite,1852,50,difficult to read,14-04-2019 00:26
274,2.0,216.0,True,Letter designer,2,recognition,3,arial,chief,word,Sure not seen,1.0,not seen,check,2218,50,difficult to read,14-04-2019 00:26
275,2.0,216.0,True,Letter designer,2,recognition,4,arial,coods,non-word,Sure not seen,1.0,not seen,conventment,1500,50,difficult to read,14-04-2019 00:26
276,2.0,216.0,True,Letter designer,2,recognition,5,arial,undefined,word,Sure not seen,0.0,seen,undefined,2836,50,difficult to read,14-04-2019 00:26
277,2.0,216.0,True,Letter designer,2,recognition,6,arial,undustomes,non-word,Sure seen,1.0,seen,undustomes,2969,50,difficult to read,14-04-2019 00:26
278,2.0,216.0,True,Letter designer,2,recognition,7,arial,partly,word,Sure not seen,0.0,seen,partly,3288,50,difficult to read,14-04-2019 00:26
279,2.0,216.0,True,Letter designer,2,recognition,8,arial,itaters,non-word,Sure not seen,1.0,not seen,irrection,1914,50,difficult to read,14-04-2019 00:26
280,2.0,216.0,True,Letter designer,2,recognition,9,arial,docionating,non-word,Sure not seen,0.0,seen,docionating,1524,50,difficult to read,14-04-2019 00:26
281,2.0,216.0,True,Letter designer,2,recognition,10,arial,island,word,Sure not seen,1.0,not seen,involved,1274,50,difficult to read,14-04-2019 00:26
282,2.0,216.0,True,Letter designer,2,recognition,11,arial,getting,word,Sure not seen,0.0,seen,getting,1304,50,difficult to read,14-04-2019 00:26
283,2.0,216.0,True,Letter designer,2,recognition,12,arial,tunning,non-word,Sure not seen,1.0,not seen,trutal,1142,50,difficult to read,14-04-2019 00:26
284,2.0,216.0,True,Letter designer,2,recognition,13,arial,worwars,non-word,Sure seen,1.0,seen,worwars,1882,50,difficult to read,14-04-2019 00:26
285,2.0,216.0,True,Letter designer,2,recognition,14,arial,guatiammer,non-word,Probably seen,1.0,seen,guatiammer,3970,50,difficult to read,14-04-2019 00:26
286,2.0,216.0,True,Letter designer,2,recognition,15,arial,plastic,word,Sure not seen,1.0,not seen,plants,3092,50,difficult to read,14-04-2019 00:26
287,2.0,216.0,True,Letter designer,2,recognition,16,arial,guarpapers,non-word,Sure not seen,1.0,not seen,guars,2781,50,difficult to read,14-04-2019 00:26
288,2.0,288.0,True,Letter designer,1,lexical,1,arial,gatisient,non-word,Sure non-word,1.0,,,2256,80,very easy to read,13-04-2019 23:55
289,2.0,288.0,True,Letter designer,1,lexical,2,arial,surtine,non-word,Sure word,0.0,,,1649,80,very easy to read,13-04-2019 23:55
290,2.0,288.0,True,Letter designer,1,lexical,3,arial,reality,word,Sure word,1.0,,,1059,80,very easy to read,13-04-2019 23:55
291,2.0,288.0,True,Letter designer,1,lexical,4,arial,later,word,Sure word,1.0,,,857,80,very easy to read,13-04-2019 23:55
292,2.0,288.0,True,Letter designer,1,lexical,5,arial,direndly,non-word,Sure non-word,1.0,,,2022,80,very easy to read,13-04-2019 23:55
293,2.0,288.0,True,Letter designer,1,lexical,6,arial,industrial,word,Sure word,1.0,,,1036,80,very easy to read,13-04-2019 23:55
294,2.0,288.0,True,Letter designer,1,lexical,7,arial,match,word,Sure word,1.0,,,1020,80,very easy to read,13-04-2019 23:55
295,2.0,288.0,True,Letter designer,1,lexical,8,arial,arrearature,non-word,Sure non-word,1.0,,,1800,80,very easy to read,13-04-2019 23:55
296,2.0,288.0,True,Letter designer,1,lexical,9,arial,untin,non-word,Sure word,0.0,,,1345,80,very easy to read,13-04-2019 23:55
297,2.0,288.0,True,Letter designer,1,lexical,10,arial,future,word,Sure word,1.0,,,1136,80,very easy to read,13-04-2019 23:55
298,2.0,288.0,True,Letter designer,1,lexical,11,arial,afficled,non-word,Sure non-word,1.0,,,1545,80,very easy to read,13-04-2019 23:55
299,2.0,288.0,True,Letter designer,1,lexical,12,arial,sudden,word,Sure word,1.0,,,1026,80,very easy to read,13-04-2019 23:55
300,2.0,288.0,True,Letter designer,1,lexical,13,arial,thirty,word,Sure word,1.0,,,999,80,very easy to read,13-04-2019 23:55
301,2.0,288.0,True,Letter designer,1,lexical,14,arial,denerstion,non-word,Sure word,0.0,,,1268,80,very easy to read,13-04-2019 23:55
302,2.0,288.0,True,Letter designer,1,lexical,15,arial,servants,word,Sure word,1.0,,,1096,80,very easy to read,13-04-2019 23:55
303,2.0,288.0,True,Letter designer,1,lexical,16,arial,became,word,Sure word,1.0,,,1086,80,very easy to read,13-04-2019 23:55
304,2.0,288.0,True,Letter designer,1,lexical,17,arial,matragants,non-word,Sure non-word,1.0,,,1544,80,very easy to read,13-04-2019 23:55
305,2.0,288.0,True,Letter designer,1,lexical,18,arial,admistion,non-word,Sure word,0.0,,,1831,80,very easy to read,13-04-2019 23:55
306,2.0,288.0,True,Letter designer,1,lexical,19,arial,incression,non-word,Sure word,0.0,,,1980,80,very easy to read,13-04-2019 23:55
307,2.0,288.0,True,Letter designer,1,lexical,20,arial,chief,word,Sure word,1.0,,,1072,80,very easy to read,13-04-2019 23:55
308,2.0,288.0,True,Letter designer,1,recognition,1,sansforgetica,because,word,Sure not seen,1.0,not seen,became,11575,80,very easy to read,13-04-2019 23:55
309,2.0,288.0,True,Letter designer,1,recognition,2,sansforgetica,deparations,non-word,Sure not seen,1.0,not seen,denerstion,1806,80,very easy to read,13-04-2019 23:55
310,2.0,288.0,True,Letter designer,1,recognition,3,sansforgetica,match,word,Sure seen,1.0,seen,match,2155,80,very easy to read,13-04-2019 23:55
311,2.0,288.0,True,Letter designer,1,recognition,4,sansforgetica,gatisient,non-word,Sure seen,1.0,seen,gatisient,1455,80,very easy to read,13-04-2019 23:55
312,2.0,288.0,True,Letter designer,1,recognition,5,sansforgetica,mayer,non-word,Sure not seen,1.0,not seen,matragants,2665,80,very easy to read,13-04-2019 23:55
313,2.0,288.0,True,Letter designer,1,recognition,6,sansforgetica,industrial,word,Sure seen,1.0,seen,industrial,2419,80,very easy to read,13-04-2019 23:55
314,2.0,288.0,True,Letter designer,1,recognition,7,sansforgetica,admiter,non-word,Probably seen,0.0,not seen,admistion,4578,80,very easy to read,13-04-2019 23:55
315,2.0,288.0,True,Letter designer,1,recognition,8,sansforgetica,those,word,Sure not seen,1.0,not seen,thirty,3470,80,very easy to read,13-04-2019 23:55
316,2.0,288.0,True,Letter designer,1,recognition,9,sansforgetica,sugar,word,Sure not seen,1.0,not seen,sudden,2004,80,very easy to read,13-04-2019 23:55
317,2.0,288.0,True,Letter designer,1,recognition,10,sansforgetica,unwiliate,non-word,Sure not seen,1.0,not seen,untin,1817,80,very easy to read,13-04-2019 23:55
318,2.0,288.0,True,Letter designer,1,recognition,11,sansforgetica,children,word,Sure not seen,1.0,not seen,chief,1536,80,very easy to read,13-04-2019 23:55
319,2.0,288.0,True,Letter designer,1,recognition,12,sansforgetica,incression,non-word,Sure seen,1.0,seen,incression,4199,80,very easy to read,13-04-2019 23:55
320,2.0,288.0,True,Letter designer,1,recognition,13,sansforgetica,reality,word,Sure seen,1.0,seen,reality,3470,80,very easy to read,13-04-2019 23:55
321,2.0,288.0,True,Letter designer,1,recognition,14,sansforgetica,surtine,non-word,Sure seen,1.0,seen,surtine,3164,80,very easy to read,13-04-2019 23:55
322,2.0,288.0,True,Letter designer,1,recognition,15,sansforgetica,later,word,Sure seen,1.0,seen,later,934,80,very easy to read,13-04-2019 23:55
323,2.0,288.0,True,Letter designer,1,recognition,16,sansforgetica,arrearature,non-word,Sure seen,1.0,seen,arrearature,1416,80,very easy to read,13-04-2019 23:55
324,2.0,288.0,True,Letter designer,2,lexical,1,sansforgetica,minefic,non-word,Sure non-word,1.0,,,3624,70,ok,13-04-2019 23:55
325,2.0,288.0,True,Letter designer,2,lexical,2,sansforgetica,looks,word,Sure word,1.0,,,1896,70,ok,13-04-2019 23:55
326,2.0,288.0,True,Letter designer,2,lexical,3,sansforgetica,govermists,non-word,Sure non-word,1.0,,,3902,70,ok,13-04-2019 23:55
327,2.0,288.0,True,Letter designer,2,lexical,4,sansforgetica,looking,word,Sure word,1.0,,,4559,70,ok,13-04-2019 23:55
328,2.0,288.0,True,Letter designer,2,lexical,5,sansforgetica,practice,word,Sure word,1.0,,,1439,70,ok,13-04-2019 23:55
329,2.0,288.0,True,Letter designer,2,lexical,6,sansforgetica,exisonent,non-word,Sure non-word,1.0,,,4317,70,ok,13-04-2019 23:55
330,2.0,288.0,True,Letter designer,2,lexical,7,sansforgetica,soctic,non-word,Sure non-word,1.0,,,4184,70,ok,13-04-2019 23:55
331,2.0,288.0,True,Letter designer,2,lexical,8,sansforgetica,prepared,word,Sure word,1.0,,,2901,70,ok,13-04-2019 23:55
332,2.0,288.0,True,Letter designer,2,lexical,9,sansforgetica,catiquition,non-word,Sure word,0.0,,,2303,70,ok,13-04-2019 23:55
333,2.0,288.0,True,Letter designer,2,lexical,10,sansforgetica,indesphant,non-word,Sure word,0.0,,,3756,70,ok,13-04-2019 23:55
334,2.0,288.0,True,Letter designer,2,lexical,11,sansforgetica,powerful,word,Sure word,1.0,,,5127,70,ok,13-04-2019 23:55
335,2.0,288.0,True,Letter designer,2,lexical,12,sansforgetica,phone,word,Sure word,1.0,,,1173,70,ok,13-04-2019 23:55
336,2.0,288.0,True,Letter designer,2,lexical,13,sansforgetica,withous,non-word,Sure non-word,1.0,,,2175,70,ok,13-04-2019 23:55
337,2.0,288.0,True,Letter designer,2,lexical,14,sansforgetica,feanspore,non-word,Sure non-word,1.0,,,3865,70,ok,13-04-2019 23:55
338,2.0,288.0,True,Letter designer,2,lexical,15,sansforgetica,always,word,Sure word,1.0,,,1372,70,ok,13-04-2019 23:55
339,2.0,288.0,True,Letter designer,2,lexical,16,sansforgetica,stage,word,Sure word,1.0,,,944,70,ok,13-04-2019 23:55
340,2.0,288.0,True,Letter designer,2,lexical,17,sansforgetica,first,word,Sure word,1.0,,,924,70,ok,13-04-2019 23:55
341,2.0,288.0,True,Letter designer,2,lexical,18,sansforgetica,slowly,word,Sure word,1.0,,,1175,70,ok,13-04-2019 23:55
342,2.0,288.0,True,Letter designer,2,lexical,19,sansforgetica,disculative,non-word,Sure word,0.0,,,3525,70,ok,13-04-2019 23:55
343,2.0,288.0,True,Letter designer,2,lexical,20,sansforgetica,grandials,non-word,Sure word,0.0,,,1636,70,ok,13-04-2019 23:55
344,2.0,288.0,True,Letter designer,2,recognition,1,arial,presence,word,Probably not seen,1.0,not seen,prepared,9757,70,ok,13-04-2019 23:55
345,2.0,288.0,True,Letter designer,2,recognition,2,arial,expeantly,non-word,Sure not seen,1.0,not seen,exisonent,4097,70,ok,13-04-2019 23:55
346,2.0,288.0,True,Letter designer,2,recognition,3,arial,loved,word,Sure not seen,1.0,not seen,looks,8255,70,ok,13-04-2019 23:55
347,2.0,288.0,True,Letter designer,2,recognition,4,arial,catuirented,non-word,Sure seen,0.0,not seen,catiquition,43635,70,ok,13-04-2019 23:55
348,2.0,288.0,True,Letter designer,2,recognition,5,arial,feanspore,non-word,Sure seen,1.0,seen,feanspore,1483,70,ok,13-04-2019 23:55
349,2.0,288.0,True,Letter designer,2,recognition,6,arial,indifferely,non-word,Sure not seen,1.0,not seen,indesphant,6095,70,ok,13-04-2019 23:55
350,2.0,288.0,True,Letter designer,2,recognition,7,arial,disculative,non-word,Sure seen,1.0,seen,disculative,1448,70,ok,13-04-2019 23:55
351,2.0,288.0,True,Letter designer,2,recognition,8,arial,govermists,non-word,Sure seen,1.0,seen,govermists,1056,70,ok,13-04-2019 23:55
352,2.0,288.0,True,Letter designer,2,recognition,9,arial,looking,word,Sure not seen,0.0,seen,looking,6536,70,ok,13-04-2019 23:55
353,2.0,288.0,True,Letter designer,2,recognition,10,arial,practical,word,Sure not seen,1.0,not seen,powerful,1565,70,ok,13-04-2019 23:55
354,2.0,288.0,True,Letter designer,2,recognition,11,arial,slowly,word,Sure not seen,0.0,seen,slowly,1525,70,ok,13-04-2019 23:55
355,2.0,288.0,True,Letter designer,2,recognition,12,arial,phone,word,Sure seen,1.0,seen,phone,1130,70,ok,13-04-2019 23:55
356,2.0,288.0,True,Letter designer,2,recognition,13,arial,minest,non-word,Sure seen,0.0,not seen,minefic,978,70,ok,13-04-2019 23:55
357,2.0,288.0,True,Letter designer,2,recognition,14,arial,always,word,Sure seen,1.0,seen,always,1423,70,ok,13-04-2019 23:55
358,2.0,288.0,True,Letter designer,2,recognition,15,arial,withous,non-word,Sure seen,1.0,seen,withous,1183,70,ok,13-04-2019 23:55
359,2.0,288.0,True,Letter designer,2,recognition,16,arial,fishing,word,Sure seen,0.0,not seen,first,1428,70,ok,13-04-2019 23:55
360,2.0,360.0,True,Non-designer,1,lexical,1,sansforgetica,seventage,non-word,Sure non-word,1.0,,,6206,80,ok,13-04-2019 20:12
361,2.0,360.0,True,Non-designer,1,lexical,2,sansforgetica,objectuffs,non-word,Sure non-word,1.0,,,3608,80,ok,13-04-2019 20:12
362,2.0,360.0,True,Non-designer,1,lexical,3,sansforgetica,touch,word,Sure word,1.0,,,2912,80,ok,13-04-2019 20:12
363,2.0,360.0,True,Non-designer,1,lexical,4,sansforgetica,walked,word,Sure word,1.0,,,1927,80,ok,13-04-2019 20:12
364,2.0,360.0,True,Non-designer,1,lexical,5,sansforgetica,momeons,non-word,Probably non-word,1.0,,,4559,80,ok,13-04-2019 20:12
365,2.0,360.0,True,Non-designer,1,lexical,6,sansforgetica,milevate,non-word,Probably non-word,1.0,,,2973,80,ok,13-04-2019 20:12
366,2.0,360.0,True,Non-designer,1,lexical,7,sansforgetica,taked,non-word,Sure non-word,1.0,,,3367,80,ok,13-04-2019 20:12
367,2.0,360.0,True,Non-designer,1,lexical,8,sansforgetica,truced,non-word,Sure non-word,1.0,,,4580,80,ok,13-04-2019 20:12
368,2.0,360.0,True,Non-designer,1,lexical,9,sansforgetica,private,word,Sure word,1.0,,,2247,80,ok,13-04-2019 20:12
369,2.0,360.0,True,Non-designer,1,lexical,10,sansforgetica,familiar,word,Sure word,1.0,,,2076,80,ok,13-04-2019 20:12
370,2.0,360.0,True,Non-designer,1,lexical,11,sansforgetica,wealth,word,Sure word,1.0,,,1912,80,ok,13-04-2019 20:12
371,2.0,360.0,True,Non-designer,1,lexical,12,sansforgetica,mothortere,non-word,Sure non-word,1.0,,,4626,80,ok,13-04-2019 20:12
372,2.0,360.0,True,Non-designer,1,lexical,13,sansforgetica,failure,word,Sure word,1.0,,,2121,80,ok,13-04-2019 20:12
373,2.0,360.0,True,Non-designer,1,lexical,14,sansforgetica,comempted,non-word,Sure non-word,1.0,,,4224,80,ok,13-04-2019 20:12
374,2.0,360.0,True,Non-designer,1,lexical,15,sansforgetica,regarded,word,Sure word,1.0,,,2104,80,ok,13-04-2019 20:12
375,2.0,360.0,True,Non-designer,1,lexical,16,sansforgetica,getting,word,Sure word,1.0,,,2200,80,ok,13-04-2019 20:12
376,2.0,360.0,True,Non-designer,1,lexical,17,sansforgetica,actually,word,Sure word,1.0,,,1533,80,ok,13-04-2019 20:12
377,2.0,360.0,True,Non-designer,1,lexical,18,sansforgetica,recent,word,Sure word,1.0,,,1574,80,ok,13-04-2019 20:12
378,2.0,360.0,True,Non-designer,1,lexical,19,sansforgetica,enound,non-word,Sure non-word,1.0,,,2227,80,ok,13-04-2019 20:12
379,2.0,360.0,True,Non-designer,1,lexical,20,sansforgetica,grocks,non-word,Probably non-word,1.0,,,2602,80,ok,13-04-2019 20:12
380,2.0,360.0,True,Non-designer,1,recognition,1,arial,weapons,word,Probably not seen,1.0,not seen,wealth,9004,80,ok,13-04-2019 20:12
381,2.0,360.0,True,Non-designer,1,recognition,2,arial,walls,word,Sure not seen,1.0,not seen,walked,2645,80,ok,13-04-2019 20:12
382,2.0,360.0,True,Non-designer,1,recognition,3,arial,touch,word,Sure seen,1.0,seen,touch,2491,80,ok,13-04-2019 20:12
383,2.0,360.0,True,Non-designer,1,recognition,4,arial,familiar,word,Sure seen,1.0,seen,familiar,1653,80,ok,13-04-2019 20:12
384,2.0,360.0,True,Non-designer,1,recognition,5,arial,trutal,non-word,Sure not seen,1.0,not seen,truced,2884,80,ok,13-04-2019 20:12
385,2.0,360.0,True,Non-designer,1,recognition,6,arial,regular,word,Sure seen,0.0,not seen,regarded,3395,80,ok,13-04-2019 20:12
386,2.0,360.0,True,Non-designer,1,recognition,7,arial,tealissed,non-word,Sure not seen,1.0,not seen,taked,1802,80,ok,13-04-2019 20:12
387,2.0,360.0,True,Non-designer,1,recognition,8,arial,millars,non-word,Sure not seen,1.0,not seen,milevate,2544,80,ok,13-04-2019 20:12
388,2.0,360.0,True,Non-designer,1,recognition,9,arial,enound,non-word,Sure seen,1.0,seen,enound,2286,80,ok,13-04-2019 20:12
389,2.0,360.0,True,Non-designer,1,recognition,10,arial,private,word,Sure seen,1.0,seen,private,1300,80,ok,13-04-2019 20:12
390,2.0,360.0,True,Non-designer,1,recognition,11,arial,seventage,non-word,Sure seen,1.0,seen,seventage,1348,80,ok,13-04-2019 20:12
391,2.0,360.0,True,Non-designer,1,recognition,12,arial,mothortere,non-word,Sure seen,1.0,seen,mothortere,1304,80,ok,13-04-2019 20:12
392,2.0,360.0,True,Non-designer,1,recognition,13,arial,fairly,word,Sure not seen,1.0,not seen,failure,2512,80,ok,13-04-2019 20:12
393,2.0,360.0,True,Non-designer,1,recognition,14,arial,obsenctiage,non-word,Sure not seen,1.0,not seen,objectuffs,2638,80,ok,13-04-2019 20:12
394,2.0,360.0,True,Non-designer,1,recognition,15,arial,momeons,non-word,Sure seen,1.0,seen,momeons,1843,80,ok,13-04-2019 20:12
395,2.0,360.0,True,Non-designer,1,recognition,16,arial,actually,word,Sure seen,1.0,seen,actually,1115,80,ok,13-04-2019 20:12
396,2.0,360.0,True,Non-designer,2,lexical,1,arial,docionating,non-word,Sure non-word,1.0,,,27034,70,very easy to read,13-04-2019 20:12
397,2.0,360.0,True,Non-designer,2,lexical,2,arial,fight,word,Sure word,1.0,,,3126,70,very easy to read,13-04-2019 20:12
398,2.0,360.0,True,Non-designer,2,lexical,3,arial,derropround,non-word,Sure non-word,1.0,,,2946,70,very easy to read,13-04-2019 20:12
399,2.0,360.0,True,Non-designer,2,lexical,4,arial,docidence,non-word,Sure non-word,1.0,,,2217,70,very easy to read,13-04-2019 20:12
400,2.0,360.0,True,Non-designer,2,lexical,5,arial,natcher,non-word,Sure non-word,1.0,,,2003,70,very easy to read,13-04-2019 20:12
401,2.0,360.0,True,Non-designer,2,lexical,6,arial,necressor,non-word,Sure non-word,1.0,,,1857,70,very easy to read,13-04-2019 20:12
402,2.0,360.0,True,Non-designer,2,lexical,7,arial,groups,word,Sure word,1.0,,,1277,70,very easy to read,13-04-2019 20:12
403,2.0,360.0,True,Non-designer,2,lexical,8,arial,hunneshed,non-word,Sure non-word,1.0,,,1757,70,very easy to read,13-04-2019 20:12
404,2.0,360.0,True,Non-designer,2,lexical,9,arial,fathed,non-word,Sure non-word,1.0,,,2199,70,very easy to read,13-04-2019 20:12
405,2.0,360.0,True,Non-designer,2,lexical,10,arial,train,word,Sure word,1.0,,,1338,70,very easy to read,13-04-2019 20:12
406,2.0,360.0,True,Non-designer,2,lexical,11,arial,drawn,word,Sure word,1.0,,,1439,70,very easy to read,13-04-2019 20:12
407,2.0,360.0,True,Non-designer,2,lexical,12,arial,mixtured,non-word,Probably non-word,1.0,,,2118,70,very easy to read,13-04-2019 20:12
408,2.0,360.0,True,Non-designer,2,lexical,13,arial,plants,word,Sure word,1.0,,,1212,70,very easy to read,13-04-2019 20:12
409,2.0,360.0,True,Non-designer,2,lexical,14,arial,especially,word,Sure word,1.0,,,1348,70,very easy to read,13-04-2019 20:12
410,2.0,360.0,True,Non-designer,2,lexical,15,arial,royal,word,Sure word,1.0,,,1022,70,very easy to read,13-04-2019 20:12
411,2.0,360.0,True,Non-designer,2,lexical,16,arial,since,word,Sure word,1.0,,,966,70,very easy to read,13-04-2019 20:12
412,2.0,360.0,True,Non-designer,2,lexical,17,arial,evidence,word,Sure word,1.0,,,898,70,very easy to read,13-04-2019 20:12
413,2.0,360.0,True,Non-designer,2,lexical,18,arial,legulations,non-word,Sure non-word,1.0,,,2583,70,very easy to read,13-04-2019 20:12
414,2.0,360.0,True,Non-designer,2,lexical,19,arial,natheracing,non-word,Sure non-word,1.0,,,2833,70,very easy to read,13-04-2019 20:12
415,2.0,360.0,True,Non-designer,2,lexical,20,arial,function,word,Sure word,1.0,,,1592,70,very easy to read,13-04-2019 20:12
416,2.0,360.0,True,Non-designer,2,recognition,1,sansforgetica,plastic,word,Sure not seen,1.0,not seen,plants,2762,70,very easy to read,13-04-2019 20:12
417,2.0,360.0,True,Non-designer,2,recognition,2,sansforgetica,docionating,non-word,Sure seen,1.0,seen,docionating,2825,70,very easy to read,13-04-2019 20:12
418,2.0,360.0,True,Non-designer,2,recognition,3,sansforgetica,natimate,non-word,Sure not seen,1.0,not seen,natheracing,3944,70,very easy to read,13-04-2019 20:12
419,2.0,360.0,True,Non-designer,2,recognition,4,sansforgetica,natender,non-word,Sure not seen,1.0,not seen,natcher,2762,70,very easy to read,13-04-2019 20:12
420,2.0,360.0,True,Non-designer,2,recognition,5,sansforgetica,descussed,non-word,Probably not seen,1.0,not seen,derropround,3873,70,very easy to read,13-04-2019 20:12
421,2.0,360.0,True,Non-designer,2,recognition,6,sansforgetica,since,word,Sure not seen,0.0,seen,since,3039,70,very easy to read,13-04-2019 20:12
422,2.0,360.0,True,Non-designer,2,recognition,7,sansforgetica,rules,word,Sure not seen,1.0,not seen,royal,1880,70,very easy to read,13-04-2019 20:12
423,2.0,360.0,True,Non-designer,2,recognition,8,sansforgetica,huntain,non-word,Sure not seen,1.0,not seen,hunneshed,2245,70,very easy to read,13-04-2019 20:12
424,2.0,360.0,True,Non-designer,2,recognition,9,sansforgetica,mixtured,non-word,Sure not seen,0.0,seen,mixtured,1085,70,very easy to read,13-04-2019 20:12
425,2.0,360.0,True,Non-designer,2,recognition,10,sansforgetica,further,word,Sure not seen,1.0,not seen,function,5016,70,very easy to read,13-04-2019 20:12
426,2.0,360.0,True,Non-designer,2,recognition,11,sansforgetica,legulations,non-word,Sure seen,1.0,seen,legulations,2377,70,very easy to read,13-04-2019 20:12
427,2.0,360.0,True,Non-designer,2,recognition,12,sansforgetica,fighting,word,Sure not seen,1.0,not seen,fight,2054,70,very easy to read,13-04-2019 20:12
428,2.0,360.0,True,Non-designer,2,recognition,13,sansforgetica,docidence,non-word,Sure seen,1.0,seen,docidence,1737,70,very easy to read,13-04-2019 20:12
429,2.0,360.0,True,Non-designer,2,recognition,14,sansforgetica,especially,word,Sure seen,1.0,seen,especially,2421,70,very easy to read,13-04-2019 20:12
430,2.0,360.0,True,Non-designer,2,recognition,15,sansforgetica,evidence,word,Sure not seen,0.0,seen,evidence,3072,70,very easy to read,13-04-2019 20:12
431,2.0,360.0,True,Non-designer,2,recognition,16,sansforgetica,train,word,Sure seen,1.0,seen,train,1230,70,very easy to read,13-04-2019 20:12
432,2.0,432.0,True,Letter designer,1,lexical,1,sansforgetica,undividuals,non-word,Sure non-word,1.0,,,6438,15,very difficult to read,13-04-2019 18:52
433,2.0,432.0,True,Letter designer,1,lexical,2,sansforgetica,father,word,Sure word,1.0,,,2010,15,very difficult to read,13-04-2019 18:52
434,2.0,432.0,True,Letter designer,1,lexical,3,sansforgetica,dreentic,non-word,Sure non-word,1.0,,,2444,15,very difficult to read,13-04-2019 18:52
435,2.0,432.0,True,Letter designer,1,lexical,4,sansforgetica,after,word,Sure word,1.0,,,1393,15,very difficult to read,13-04-2019 18:52
436,2.0,432.0,True,Letter designer,1,lexical,5,sansforgetica,discrings,non-word,Probably non-word,1.0,,,6859,15,very difficult to read,13-04-2019 18:52
437,2.0,432.0,True,Letter designer,1,lexical,6,sansforgetica,lanistic,non-word,Probably non-word,1.0,,,2707,15,very difficult to read,13-04-2019 18:52
438,2.0,432.0,True,Letter designer,1,lexical,7,sansforgetica,anstons,non-word,Sure non-word,1.0,,,2633,15,very difficult to read,13-04-2019 18:52
439,2.0,432.0,True,Letter designer,1,lexical,8,sansforgetica,speech,word,Sure word,1.0,,,1777,15,very difficult to read,13-04-2019 18:52
440,2.0,432.0,True,Letter designer,1,lexical,9,sansforgetica,watching,word,Sure word,1.0,,,1696,15,very difficult to read,13-04-2019 18:52
441,2.0,432.0,True,Letter designer,1,lexical,10,sansforgetica,miregiated,non-word,Sure non-word,1.0,,,3509,15,very difficult to read,13-04-2019 18:52
442,2.0,432.0,True,Letter designer,1,lexical,11,sansforgetica,upbelf,non-word,Sure non-word,1.0,,,2112,15,very difficult to read,13-04-2019 18:52
443,2.0,432.0,True,Letter designer,1,lexical,12,sansforgetica,feelings,word,Sure word,1.0,,,1523,15,very difficult to read,13-04-2019 18:52
444,2.0,432.0,True,Letter designer,1,lexical,13,sansforgetica,philogrand,non-word,Probably non-word,1.0,,,5808,15,very difficult to read,13-04-2019 18:52
445,2.0,432.0,True,Letter designer,1,lexical,14,sansforgetica,source,word,Sure word,1.0,,,1351,15,very difficult to read,13-04-2019 18:52
446,2.0,432.0,True,Letter designer,1,lexical,15,sansforgetica,advanth,non-word,Probably non-word,1.0,,,2150,15,very difficult to read,13-04-2019 18:52
447,2.0,432.0,True,Letter designer,1,lexical,16,sansforgetica,wants,word,Sure word,1.0,,,1466,15,very difficult to read,13-04-2019 18:52
448,2.0,432.0,True,Letter designer,1,lexical,17,sansforgetica,written,word,Sure word,1.0,,,1335,15,very difficult to read,13-04-2019 18:52
449,2.0,432.0,True,Letter designer,1,lexical,18,sansforgetica,believed,word,Sure word,1.0,,,1267,15,very difficult to read,13-04-2019 18:52
450,2.0,432.0,True,Letter designer,1,lexical,19,sansforgetica,surtine,non-word,Sure non-word,1.0,,,1939,15,very difficult to read,13-04-2019 18:52
451,2.0,432.0,True,Letter designer,1,lexical,20,sansforgetica,before,word,Sure word,1.0,,,1297,15,very difficult to read,13-04-2019 18:52
452,2.0,432.0,True,Letter designer,1,recognition,1,arial,anstons,non-word,Sure seen,1.0,seen,anstons,3128,15,very difficult to read,13-04-2019 18:52
453,2.0,432.0,True,Letter designer,1,recognition,2,arial,dreentic,non-word,Sure seen,1.0,seen,dreentic,1602,15,very difficult to read,13-04-2019 18:52
454,2.0,432.0,True,Letter designer,1,recognition,3,arial,misappriate,non-word,Probably not seen,1.0,not seen,miregiated,2000,15,very difficult to read,13-04-2019 18:52
455,2.0,432.0,True,Letter designer,1,recognition,4,arial,philogrand,non-word,Sure seen,1.0,seen,philogrand,1418,15,very difficult to read,13-04-2019 18:52
456,2.0,432.0,True,Letter designer,1,recognition,5,arial,waste,word,Sure not seen,1.0,not seen,wants,2202,15,very difficult to read,13-04-2019 18:52
457,2.0,432.0,True,Letter designer,1,recognition,6,arial,after,word,Sure seen,1.0,seen,after,1139,15,very difficult to read,13-04-2019 18:52
458,2.0,432.0,True,Letter designer,1,recognition,7,arial,father,word,Sure seen,1.0,seen,father,1502,15,very difficult to read,13-04-2019 18:52
459,2.0,432.0,True,Letter designer,1,recognition,8,arial,wrong,word,Sure not seen,1.0,not seen,written,1882,15,very difficult to read,13-04-2019 18:52
460,2.0,432.0,True,Letter designer,1,recognition,9,arial,source,word,Probably not seen,0.0,seen,source,1831,15,very difficult to read,13-04-2019 18:52
461,2.0,432.0,True,Letter designer,1,recognition,10,arial,susining,non-word,Probably not seen,1.0,not seen,surtine,2960,15,very difficult to read,13-04-2019 18:52
462,2.0,432.0,True,Letter designer,1,recognition,11,arial,speech,word,Sure seen,1.0,seen,speech,1787,15,very difficult to read,13-04-2019 18:52
463,2.0,432.0,True,Letter designer,1,recognition,12,arial,feels,word,Sure seen,0.0,not seen,feelings,1191,15,very difficult to read,13-04-2019 18:52
464,2.0,432.0,True,Letter designer,1,recognition,13,arial,discrings,non-word,Sure seen,1.0,seen,discrings,1253,15,very difficult to read,13-04-2019 18:52
465,2.0,432.0,True,Letter designer,1,recognition,14,arial,undonestes,non-word,Sure not seen,1.0,not seen,undividuals,2201,15,very difficult to read,13-04-2019 18:52
466,2.0,432.0,True,Letter designer,1,recognition,15,arial,larms,non-word,Probably not seen,1.0,not seen,lanistic,1850,15,very difficult to read,13-04-2019 18:52
467,2.0,432.0,True,Letter designer,1,recognition,16,arial,water,word,Probably not seen,1.0,not seen,watching,2266,15,very difficult to read,13-04-2019 18:52
468,2.0,432.0,True,Letter designer,2,lexical,1,arial,cities,word,Sure word,1.0,,,3287,64,very easy to read,13-04-2019 18:52
469,2.0,432.0,True,Letter designer,2,lexical,2,arial,gazark,non-word,Probably non-word,1.0,,,1680,64,very easy to read,13-04-2019 18:52
470,2.0,432.0,True,Letter designer,2,lexical,3,arial,fingers,word,Sure word,1.0,,,1653,64,very easy to read,13-04-2019 18:52
471,2.0,432.0,True,Letter designer,2,lexical,4,arial,celaament,non-word,Sure non-word,1.0,,,1606,64,very easy to read,13-04-2019 18:52
472,2.0,432.0,True,Letter designer,2,lexical,5,arial,costs,word,Sure word,1.0,,,1227,64,very easy to read,13-04-2019 18:52
473,2.0,432.0,True,Letter designer,2,lexical,6,arial,commishors,non-word,Sure non-word,1.0,,,2227,64,very easy to read,13-04-2019 18:52
474,2.0,432.0,True,Letter designer,2,lexical,7,arial,proferounds,non-word,Probably non-word,1.0,,,2084,64,very easy to read,13-04-2019 18:52
475,2.0,432.0,True,Letter designer,2,lexical,8,arial,proved,word,Sure word,1.0,,,1340,64,very easy to read,13-04-2019 18:52
476,2.0,432.0,True,Letter designer,2,lexical,9,arial,politics,word,Sure word,1.0,,,1662,64,very easy to read,13-04-2019 18:52
477,2.0,432.0,True,Letter designer,2,lexical,10,arial,bread,word,Sure word,1.0,,,1026,64,very easy to read,13-04-2019 18:52
478,2.0,432.0,True,Letter designer,2,lexical,11,arial,flowers,word,Sure word,1.0,,,1146,64,very easy to read,13-04-2019 18:52
479,2.0,432.0,True,Letter designer,2,lexical,12,arial,forwared,non-word,Probably non-word,1.0,,,2844,64,very easy to read,13-04-2019 18:52
480,2.0,432.0,True,Letter designer,2,lexical,13,arial,weapons,word,Sure word,1.0,,,1134,64,very easy to read,13-04-2019 18:52
481,2.0,432.0,True,Letter designer,2,lexical,14,arial,explowing,non-word,Sure non-word,1.0,,,1828,64,very easy to read,13-04-2019 18:52
482,2.0,432.0,True,Letter designer,2,lexical,15,arial,guatiammer,non-word,Sure non-word,1.0,,,1640,64,very easy to read,13-04-2019 18:52
483,2.0,432.0,True,Letter designer,2,lexical,16,arial,senal,non-word,Probably non-word,1.0,,,1847,64,very easy to read,13-04-2019 18:52
484,2.0,432.0,True,Letter designer,2,lexical,17,arial,heinge,non-word,Probably non-word,1.0,,,1632,64,very easy to read,13-04-2019 18:52
485,2.0,432.0,True,Letter designer,2,lexical,18,arial,final,word,Sure word,1.0,,,1123,64,very easy to read,13-04-2019 18:52
486,2.0,432.0,True,Letter designer,2,lexical,19,arial,forgotten,word,Sure word,1.0,,,1616,64,very easy to read,13-04-2019 18:52
487,2.0,432.0,True,Letter designer,2,lexical,20,arial,disruptics,non-word,Probably non-word,1.0,,,2944,64,very easy to read,13-04-2019 18:52
488,2.0,432.0,True,Letter designer,2,recognition,1,sansforgetica,guite,non-word,Sure not seen,1.0,not seen,guatiammer,4398,64,very easy to read,13-04-2019 18:52
489,2.0,432.0,True,Letter designer,2,recognition,2,sansforgetica,formal,word,Sure not seen,1.0,not seen,forgotten,1315,64,very easy to read,13-04-2019 18:52
490,2.0,432.0,True,Letter designer,2,recognition,3,sansforgetica,break,word,Sure not seen,1.0,not seen,bread,1042,64,very easy to read,13-04-2019 18:52
491,2.0,432.0,True,Letter designer,2,recognition,4,sansforgetica,commishors,non-word,Probably seen,1.0,seen,commishors,2228,64,very easy to read,13-04-2019 18:52
492,2.0,432.0,True,Letter designer,2,recognition,5,sansforgetica,follow,word,Probably seen,0.0,not seen,flowers,1906,64,very easy to read,13-04-2019 18:52
493,2.0,432.0,True,Letter designer,2,recognition,6,sansforgetica,cenger,non-word,Probably seen,0.0,not seen,celaament,1340,64,very easy to read,13-04-2019 18:52
494,2.0,432.0,True,Letter designer,2,recognition,7,sansforgetica,disruptics,non-word,Sure seen,1.0,seen,disruptics,2785,64,very easy to read,13-04-2019 18:52
495,2.0,432.0,True,Letter designer,2,recognition,8,sansforgetica,could,word,Sure not seen,1.0,not seen,costs,1494,64,very easy to read,13-04-2019 18:52
496,2.0,432.0,True,Letter designer,2,recognition,9,sansforgetica,proved,word,Sure seen,1.0,seen,proved,1619,64,very easy to read,13-04-2019 18:52
497,2.0,432.0,True,Letter designer,2,recognition,10,sansforgetica,politics,word,Sure seen,1.0,seen,politics,1164,64,very easy to read,13-04-2019 18:52
498,2.0,432.0,True,Letter designer,2,recognition,11,sansforgetica,cities,word,Sure not seen,0.0,seen,cities,1454,64,very easy to read,13-04-2019 18:52
499,2.0,432.0,True,Letter designer,2,recognition,12,sansforgetica,weapons,word,Sure seen,1.0,seen,weapons,1168,64,very easy to read,13-04-2019 18:52
500,2.0,432.0,True,Letter designer,2,recognition,13,sansforgetica,herhaps,non-word,Sure not seen,1.0,not seen,heinge,2400,64,very easy to read,13-04-2019 18:52
501,2.0,432.0,True,Letter designer,2,recognition,14,sansforgetica,gazark,non-word,Sure seen,1.0,seen,gazark,1407,64,very easy to read,13-04-2019 18:52
502,2.0,432.0,True,Letter designer,2,recognition,15,sansforgetica,profertion,non-word,Sure not seen,1.0,not seen,proferounds,2212,64,very easy to read,13-04-2019 18:52
503,2.0,432.0,True,Letter designer,2,recognition,16,sansforgetica,explowing,non-word,Sure seen,1.0,seen,explowing,1631,64,very easy to read,13-04-2019 18:52
504,2.0,504.0,True,Non-designer,1,lexical,1,sansforgetica,lunnest,non-word,Probably non-word,1.0,,,7805,60,ok,13-04-2019 18:09
505,2.0,504.0,True,Non-designer,1,lexical,2,sansforgetica,discomision,non-word,Probably word,0.0,,,6114,60,ok,13-04-2019 18:09
506,2.0,504.0,True,Non-designer,1,lexical,3,sansforgetica,secordlere,non-word,Sure non-word,1.0,,,5979,60,ok,13-04-2019 18:09
507,2.0,504.0,True,Non-designer,1,lexical,4,sansforgetica,public,word,Sure word,1.0,,,2131,60,ok,13-04-2019 18:09
508,2.0,504.0,True,Non-designer,1,lexical,5,sansforgetica,nodded,word,Sure word,1.0,,,2367,60,ok,13-04-2019 18:09
509,2.0,504.0,True,Non-designer,1,lexical,6,sansforgetica,horses,word,Sure word,1.0,,,2024,60,ok,13-04-2019 18:09
510,2.0,504.0,True,Non-designer,1,lexical,7,sansforgetica,villsite,non-word,Probably non-word,1.0,,,3137,60,ok,13-04-2019 18:09
511,2.0,504.0,True,Non-designer,1,lexical,8,sansforgetica,glizagely,non-word,Probably non-word,1.0,,,3076,60,ok,13-04-2019 18:09
512,2.0,504.0,True,Non-designer,1,lexical,9,sansforgetica,energy,word,Sure word,1.0,,,1826,60,ok,13-04-2019 18:09
513,2.0,504.0,True,Non-designer,1,lexical,10,sansforgetica,farmers,word,Sure word,1.0,,,1979,60,ok,13-04-2019 18:09
514,2.0,504.0,True,Non-designer,1,lexical,11,sansforgetica,development,word,Sure word,1.0,,,2438,60,ok,13-04-2019 18:09
515,2.0,504.0,True,Non-designer,1,lexical,12,sansforgetica,suggesent,non-word,Sure word,0.0,,,1398,60,ok,13-04-2019 18:09
516,2.0,504.0,True,Non-designer,1,lexical,13,sansforgetica,compritable,non-word,Probably non-word,1.0,,,3651,60,ok,13-04-2019 18:09
517,2.0,504.0,True,Non-designer,1,lexical,14,sansforgetica,distected,non-word,Probably non-word,1.0,,,3464,60,ok,13-04-2019 18:09
518,2.0,504.0,True,Non-designer,1,lexical,15,sansforgetica,replogy,non-word,Sure non-word,1.0,,,5841,60,ok,13-04-2019 18:09
519,2.0,504.0,True,Non-designer,1,lexical,16,sansforgetica,hovelently,non-word,Sure non-word,1.0,,,4438,60,ok,13-04-2019 18:09
520,2.0,504.0,True,Non-designer,1,lexical,17,sansforgetica,feelings,word,Sure word,1.0,,,1981,60,ok,13-04-2019 18:09
521,2.0,504.0,True,Non-designer,1,lexical,18,sansforgetica,technology,word,Sure word,1.0,,,1953,60,ok,13-04-2019 18:09
522,2.0,504.0,True,Non-designer,1,lexical,19,sansforgetica,becoming,word,Sure word,1.0,,,1805,60,ok,13-04-2019 18:09
523,2.0,504.0,True,Non-designer,1,lexical,20,sansforgetica,ordinary,word,Sure word,1.0,,,1587,60,ok,13-04-2019 18:09
524,2.0,504.0,True,Non-designer,1,recognition,1,arial,suggesent,non-word,Sure seen,1.0,seen,suggesent,4822,60,ok,13-04-2019 18:09
525,2.0,504.0,True,Non-designer,1,recognition,2,arial,hospital,word,Sure not seen,1.0,not seen,horses,3333,60,ok,13-04-2019 18:09
526,2.0,504.0,True,Non-designer,1,recognition,3,arial,hovelently,non-word,Sure seen,1.0,seen,hovelently,3009,60,ok,13-04-2019 18:09
527,2.0,504.0,True,Non-designer,1,recognition,4,arial,compritable,non-word,Sure seen,1.0,seen,compritable,2041,60,ok,13-04-2019 18:09
528,2.0,504.0,True,Non-designer,1,recognition,5,arial,farmers,word,Sure seen,1.0,seen,farmers,1869,60,ok,13-04-2019 18:09
529,2.0,504.0,True,Non-designer,1,recognition,6,arial,distecties,non-word,Sure not seen,1.0,not seen,distected,4713,60,ok,13-04-2019 18:09
530,2.0,504.0,True,Non-designer,1,recognition,7,arial,published,word,Sure not seen,1.0,not seen,public,2285,60,ok,13-04-2019 18:09
531,2.0,504.0,True,Non-designer,1,recognition,8,arial,secordlere,non-word,Sure seen,1.0,seen,secordlere,2854,60,ok,13-04-2019 18:09
532,2.0,504.0,True,Non-designer,1,recognition,9,arial,difference,word,Sure not seen,1.0,not seen,development,3305,60,ok,13-04-2019 18:09
533,2.0,504.0,True,Non-designer,1,recognition,10,arial,repreased,non-word,Sure not seen,1.0,not seen,replogy,2216,60,ok,13-04-2019 18:09
534,2.0,504.0,True,Non-designer,1,recognition,11,arial,ordinary,word,Sure not seen,0.0,seen,ordinary,1817,60,ok,13-04-2019 18:09
535,2.0,504.0,True,Non-designer,1,recognition,12,arial,gnaning,non-word,Sure not seen,1.0,not seen,glizagely,1723,60,ok,13-04-2019 18:09
536,2.0,504.0,True,Non-designer,1,recognition,13,arial,noise,word,Sure not seen,1.0,not seen,nodded,1404,60,ok,13-04-2019 18:09
537,2.0,504.0,True,Non-designer,1,recognition,14,arial,violetic,non-word,Sure not seen,1.0,not seen,villsite,1332,60,ok,13-04-2019 18:09
538,2.0,504.0,True,Non-designer,1,recognition,15,arial,technology,word,Sure seen,1.0,seen,technology,1749,60,ok,13-04-2019 18:09
539,2.0,504.0,True,Non-designer,1,recognition,16,arial,energy,word,Sure seen,1.0,seen,energy,1258,60,ok,13-04-2019 18:09
540,2.0,504.0,True,Non-designer,2,lexical,1,arial,pillern,non-word,Probably non-word,1.0,,,5155,60,very easy to read,13-04-2019 18:09
541,2.0,504.0,True,Non-designer,2,lexical,2,arial,guarpapers,non-word,Probably non-word,1.0,,,2666,60,very easy to read,13-04-2019 18:09
542,2.0,504.0,True,Non-designer,2,lexical,3,arial,strantely,non-word,Probably non-word,1.0,,,1850,60,very easy to read,13-04-2019 18:09
543,2.0,504.0,True,Non-designer,2,lexical,4,arial,clese,non-word,Probably non-word,1.0,,,1622,60,very easy to read,13-04-2019 18:09
544,2.0,504.0,True,Non-designer,2,lexical,5,arial,vegetitors,non-word,Probably word,0.0,,,5120,60,very easy to read,13-04-2019 18:09
545,2.0,504.0,True,Non-designer,2,lexical,6,arial,school,word,Sure word,1.0,,,1741,60,very easy to read,13-04-2019 18:09
546,2.0,504.0,True,Non-designer,2,lexical,7,arial,amonged,non-word,Probably non-word,1.0,,,3707,60,very easy to read,13-04-2019 18:09
547,2.0,504.0,True,Non-designer,2,lexical,8,arial,exerional,non-word,Probably non-word,1.0,,,2580,60,very easy to read,13-04-2019 18:09
548,2.0,504.0,True,Non-designer,2,lexical,9,arial,bedroom,word,Sure word,1.0,,,1680,60,very easy to read,13-04-2019 18:09
549,2.0,504.0,True,Non-designer,2,lexical,10,arial,during,word,Sure word,1.0,,,2091,60,very easy to read,13-04-2019 18:09
550,2.0,504.0,True,Non-designer,2,lexical,11,arial,calculgical,non-word,Probably word,0.0,,,3326,60,very easy to read,13-04-2019 18:09
551,2.0,504.0,True,Non-designer,2,lexical,12,arial,volong,non-word,Probably non-word,1.0,,,1941,60,very easy to read,13-04-2019 18:09
552,2.0,504.0,True,Non-designer,2,lexical,13,arial,search,word,Sure word,1.0,,,1714,60,very easy to read,13-04-2019 18:09
553,2.0,504.0,True,Non-designer,2,lexical,14,arial,indertunity,non-word,Sure non-word,1.0,,,2396,60,very easy to read,13-04-2019 18:09
554,2.0,504.0,True,Non-designer,2,lexical,15,arial,build,word,Sure word,1.0,,,1763,60,very easy to read,13-04-2019 18:09
555,2.0,504.0,True,Non-designer,2,lexical,16,arial,obviously,word,Sure word,1.0,,,1293,60,very easy to read,13-04-2019 18:09
556,2.0,504.0,True,Non-designer,2,lexical,17,arial,living,word,Sure word,1.0,,,1374,60,very easy to read,13-04-2019 18:09
557,2.0,504.0,True,Non-designer,2,lexical,18,arial,surface,word,Sure word,1.0,,,1334,60,very easy to read,13-04-2019 18:09
558,2.0,504.0,True,Non-designer,2,lexical,19,arial,impossible,word,Sure word,1.0,,,1468,60,very easy to read,13-04-2019 18:09
559,2.0,504.0,True,Non-designer,2,lexical,20,arial,spent,word,Sure word,1.0,,,1381,60,very easy to read,13-04-2019 18:09
560,2.0,504.0,True,Non-designer,2,recognition,1,sansforgetica,indesphant,non-word,Sure not seen,1.0,not seen,indertunity,4391,60,very easy to read,13-04-2019 18:09
561,2.0,504.0,True,Non-designer,2,recognition,2,sansforgetica,vulnership,non-word,Sure not seen,1.0,not seen,volong,2713,60,very easy to read,13-04-2019 18:09
562,2.0,504.0,True,Non-designer,2,recognition,3,sansforgetica,surface,word,Sure not seen,0.0,seen,surface,2746,60,very easy to read,13-04-2019 18:09
563,2.0,504.0,True,Non-designer,2,recognition,4,sansforgetica,pillern,non-word,Sure not seen,0.0,seen,pillern,2376,60,very easy to read,13-04-2019 18:09
564,2.0,504.0,True,Non-designer,2,recognition,5,sansforgetica,local,word,Sure not seen,1.0,not seen,living,1916,60,very easy to read,13-04-2019 18:09
565,2.0,504.0,True,Non-designer,2,recognition,6,sansforgetica,spirit,word,Sure not seen,1.0,not seen,spent,1295,60,very easy to read,13-04-2019 18:09
566,2.0,504.0,True,Non-designer,2,recognition,7,sansforgetica,calculgical,non-word,Sure seen,1.0,seen,calculgical,2786,60,very easy to read,13-04-2019 18:09
567,2.0,504.0,True,Non-designer,2,recognition,8,sansforgetica,clesh,non-word,Sure not seen,1.0,not seen,clese,4110,60,very easy to read,13-04-2019 18:09
568,2.0,504.0,True,Non-designer,2,recognition,9,sansforgetica,exisonent,non-word,Sure not seen,1.0,not seen,exerional,2808,60,very easy to read,13-04-2019 18:09
569,2.0,504.0,True,Non-designer,2,recognition,10,sansforgetica,season,word,Sure not seen,1.0,not seen,search,1893,60,very easy to read,13-04-2019 18:09
570,2.0,504.0,True,Non-designer,2,recognition,11,sansforgetica,daily,word,Sure not seen,1.0,not seen,during,1666,60,very easy to read,13-04-2019 18:09
571,2.0,504.0,True,Non-designer,2,recognition,12,sansforgetica,build,word,Sure seen,1.0,seen,build,1873,60,very easy to read,13-04-2019 18:09
572,2.0,504.0,True,Non-designer,2,recognition,13,sansforgetica,amonged,non-word,Sure seen,1.0,seen,amonged,1914,60,very easy to read,13-04-2019 18:09
573,2.0,504.0,True,Non-designer,2,recognition,14,sansforgetica,bedroom,word,Sure seen,1.0,seen,bedroom,1487,60,very easy to read,13-04-2019 18:09
574,2.0,504.0,True,Non-designer,2,recognition,15,sansforgetica,vegetitors,non-word,Sure seen,1.0,seen,vegetitors,1919,60,very easy to read,13-04-2019 18:09
575,2.0,504.0,True,Non-designer,2,recognition,16,sansforgetica,impossible,word,Sure seen,1.0,seen,impossible,1700,60,very easy to read,13-04-2019 18:09
576,2.0,576.0,True,Non-designer,1,lexical,1,arial,lourced,non-word,Probably non-word,1.0,,,3452,57,very easy to read,13-04-2019 18:01
577,2.0,576.0,True,Non-designer,1,lexical,2,arial,scratious,non-word,Sure word,0.0,,,2520,57,very easy to read,13-04-2019 18:01
578,2.0,576.0,True,Non-designer,1,lexical,3,arial,potential,word,Sure word,1.0,,,1801,57,very easy to read,13-04-2019 18:01
579,2.0,576.0,True,Non-designer,1,lexical,4,arial,match,word,Sure word,1.0,,,1794,57,very easy to read,13-04-2019 18:01
580,2.0,576.0,True,Non-designer,1,lexical,5,arial,determined,word,Sure word,1.0,,,1596,57,very easy to read,13-04-2019 18:01
581,2.0,576.0,True,Non-designer,1,lexical,6,arial,imputives,non-word,Probably non-word,1.0,,,3653,57,very easy to read,13-04-2019 18:01
582,2.0,576.0,True,Non-designer,1,lexical,7,arial,housing,word,Sure word,1.0,,,1669,57,very easy to read,13-04-2019 18:01
583,2.0,576.0,True,Non-designer,1,lexical,8,arial,parturceful,non-word,Probably non-word,1.0,,,2318,57,very easy to read,13-04-2019 18:01
584,2.0,576.0,True,Non-designer,1,lexical,9,arial,farmers,word,Sure word,1.0,,,1929,57,very easy to read,13-04-2019 18:01
585,2.0,576.0,True,Non-designer,1,lexical,10,arial,lunnest,non-word,Probably non-word,1.0,,,3106,57,very easy to read,13-04-2019 18:01
586,2.0,576.0,True,Non-designer,1,lexical,11,arial,womed,non-word,Probably non-word,1.0,,,2750,57,very easy to read,13-04-2019 18:01
587,2.0,576.0,True,Non-designer,1,lexical,12,arial,books,word,Sure word,1.0,,,1606,57,very easy to read,13-04-2019 18:01
588,2.0,576.0,True,Non-designer,1,lexical,13,arial,spectrition,non-word,Probably non-word,1.0,,,2421,57,very easy to read,13-04-2019 18:01
589,2.0,576.0,True,Non-designer,1,lexical,14,arial,develop,word,Sure word,1.0,,,1735,57,very easy to read,13-04-2019 18:01
590,2.0,576.0,True,Non-designer,1,lexical,15,arial,centoment,non-word,Sure non-word,1.0,,,2388,57,very easy to read,13-04-2019 18:01
591,2.0,576.0,True,Non-designer,1,lexical,16,arial,himself,word,Sure word,1.0,,,1563,57,very easy to read,13-04-2019 18:01
592,2.0,576.0,True,Non-designer,1,lexical,17,arial,legissaries,non-word,Probably non-word,1.0,,,2149,57,very easy to read,13-04-2019 18:01
593,2.0,576.0,True,Non-designer,1,lexical,18,arial,weather,word,Sure word,1.0,,,1430,57,very easy to read,13-04-2019 18:01
594,2.0,576.0,True,Non-designer,1,lexical,19,arial,clean,word,Sure word,1.0,,,1388,57,very easy to read,13-04-2019 18:01
595,2.0,576.0,True,Non-designer,1,lexical,20,arial,guatiammer,non-word,Sure non-word,1.0,,,2821,57,very easy to read,13-04-2019 18:01
596,2.0,576.0,True,Non-designer,1,recognition,1,sansforgetica,books,word,Sure seen,1.0,seen,books,4979,57,very easy to read,13-04-2019 18:01
597,2.0,576.0,True,Non-designer,1,recognition,2,sansforgetica,womed,non-word,Sure seen,1.0,seen,womed,2381,57,very easy to read,13-04-2019 18:01
598,2.0,576.0,True,Non-designer,1,recognition,3,sansforgetica,clear,word,Sure seen,0.0,not seen,clean,1915,57,very easy to read,13-04-2019 18:01
599,2.0,576.0,True,Non-designer,1,recognition,4,sansforgetica,match,word,Sure seen,1.0,seen,match,1474,57,very easy to read,13-04-2019 18:01
600,2.0,576.0,True,Non-designer,1,recognition,5,sansforgetica,himself,word,Sure seen,1.0,seen,himself,1992,57,very easy to read,13-04-2019 18:01
601,2.0,576.0,True,Non-designer,1,recognition,6,sansforgetica,pounds,word,Sure not seen,1.0,not seen,potential,2304,57,very easy to read,13-04-2019 18:01
602,2.0,576.0,True,Non-designer,1,recognition,7,sansforgetica,housing,word,Sure seen,1.0,seen,housing,1737,57,very easy to read,13-04-2019 18:01
603,2.0,576.0,True,Non-designer,1,recognition,8,sansforgetica,legissaries,non-word,Sure seen,1.0,seen,legissaries,2724,57,very easy to read,13-04-2019 18:01
604,2.0,576.0,True,Non-designer,1,recognition,9,sansforgetica,imputives,non-word,Sure seen,1.0,seen,imputives,2413,57,very easy to read,13-04-2019 18:01
605,2.0,576.0,True,Non-designer,1,recognition,10,sansforgetica,parturceful,non-word,Sure not seen,0.0,seen,parturceful,2231,57,very easy to read,13-04-2019 18:01
606,2.0,576.0,True,Non-designer,1,recognition,11,sansforgetica,weeks,word,Probably not seen,1.0,not seen,weather,2552,57,very easy to read,13-04-2019 18:01
607,2.0,576.0,True,Non-designer,1,recognition,12,sansforgetica,guite,non-word,Sure not seen,1.0,not seen,guatiammer,2163,57,very easy to read,13-04-2019 18:01
608,2.0,576.0,True,Non-designer,1,recognition,13,sansforgetica,seanspother,non-word,Sure not seen,1.0,not seen,scratious,1980,57,very easy to read,13-04-2019 18:01
609,2.0,576.0,True,Non-designer,1,recognition,14,sansforgetica,labite,non-word,Sure not seen,1.0,not seen,lunnest,1669,57,very easy to read,13-04-2019 18:01
610,2.0,576.0,True,Non-designer,1,recognition,15,sansforgetica,speen,non-word,Sure not seen,1.0,not seen,spectrition,1913,57,very easy to read,13-04-2019 18:01
611,2.0,576.0,True,Non-designer,1,recognition,16,sansforgetica,details,word,Probably not seen,1.0,not seen,determined,2554,57,very easy to read,13-04-2019 18:01
612,2.0,576.0,True,Non-designer,2,lexical,1,sansforgetica,agaim,non-word,Sure non-word,1.0,,,8414,37,very difficult to read,13-04-2019 18:01
613,2.0,576.0,True,Non-designer,2,lexical,2,sansforgetica,lovessions,non-word,Sure non-word,1.0,,,2246,37,very difficult to read,13-04-2019 18:01
614,2.0,576.0,True,Non-designer,2,lexical,3,sansforgetica,democracy,word,Sure word,1.0,,,1945,37,very difficult to read,13-04-2019 18:01
615,2.0,576.0,True,Non-designer,2,lexical,4,sansforgetica,decial,non-word,Sure word,0.0,,,3115,37,very difficult to read,13-04-2019 18:01
616,2.0,576.0,True,Non-designer,2,lexical,5,sansforgetica,whose,word,Sure word,1.0,,,1547,37,very difficult to read,13-04-2019 18:01
617,2.0,576.0,True,Non-designer,2,lexical,6,sansforgetica,spring,word,Sure word,1.0,,,1717,37,very difficult to read,13-04-2019 18:01
618,2.0,576.0,True,Non-designer,2,lexical,7,sansforgetica,revelopment,non-word,Probably non-word,1.0,,,3305,37,very difficult to read,13-04-2019 18:01
619,2.0,576.0,True,Non-designer,2,lexical,8,sansforgetica,gatted,non-word,Probably non-word,1.0,,,2572,37,very difficult to read,13-04-2019 18:01
620,2.0,576.0,True,Non-designer,2,lexical,9,sansforgetica,saying,word,Sure word,1.0,,,1622,37,very difficult to read,13-04-2019 18:01
621,2.0,576.0,True,Non-designer,2,lexical,10,sansforgetica,courses,word,Sure word,1.0,,,1720,37,very difficult to read,13-04-2019 18:01
622,2.0,576.0,True,Non-designer,2,lexical,11,sansforgetica,begar,non-word,Probably non-word,1.0,,,2543,37,very difficult to read,13-04-2019 18:01
623,2.0,576.0,True,Non-designer,2,lexical,12,sansforgetica,court,word,Sure word,1.0,,,1654,37,very difficult to read,13-04-2019 18:01
624,2.0,576.0,True,Non-designer,2,lexical,13,sansforgetica,gallowned,non-word,Probably non-word,1.0,,,4338,37,very difficult to read,13-04-2019 18:01
625,2.0,576.0,True,Non-designer,2,lexical,14,sansforgetica,exampses,non-word,Sure non-word,1.0,,,2809,37,very difficult to read,13-04-2019 18:01
626,2.0,576.0,True,Non-designer,2,lexical,15,sansforgetica,studies,word,Sure word,1.0,,,1460,37,very difficult to read,13-04-2019 18:01
627,2.0,576.0,True,Non-designer,2,lexical,16,sansforgetica,relaterial,non-word,Sure word,0.0,,,1854,37,very difficult to read,13-04-2019 18:01
628,2.0,576.0,True,Non-designer,2,lexical,17,sansforgetica,autteuvrity,non-word,Sure non-word,1.0,,,2068,37,very difficult to read,13-04-2019 18:01
629,2.0,576.0,True,Non-designer,2,lexical,18,sansforgetica,others,word,Sure word,1.0,,,1567,37,very difficult to read,13-04-2019 18:01
630,2.0,576.0,True,Non-designer,2,lexical,19,sansforgetica,activities,word,Sure word,1.0,,,1560,37,very difficult to read,13-04-2019 18:01
631,2.0,576.0,True,Non-designer,2,lexical,20,sansforgetica,enjoy,word,Sure word,1.0,,,1260,37,very difficult to read,13-04-2019 18:01
632,2.0,576.0,True,Non-designer,2,recognition,1,arial,scale,word,Sure seen,0.0,not seen,saying,3170,37,very difficult to read,13-04-2019 18:01
633,2.0,576.0,True,Non-designer,2,recognition,2,arial,couple,word,Sure not seen,1.0,not seen,courses,2053,37,very difficult to read,13-04-2019 18:01
634,2.0,576.0,True,Non-designer,2,recognition,3,arial,decial,non-word,Sure seen,1.0,seen,decial,2327,37,very difficult to read,13-04-2019 18:01
635,2.0,576.0,True,Non-designer,2,recognition,4,arial,againes,non-word,Probably not seen,1.0,not seen,agaim,2775,37,very difficult to read,13-04-2019 18:01
636,2.0,576.0,True,Non-designer,2,recognition,5,arial,otherwise,word,Probably not seen,1.0,not seen,others,3249,37,very difficult to read,13-04-2019 18:01
637,2.0,576.0,True,Non-designer,2,recognition,6,arial,whose,word,Probably not seen,0.0,seen,whose,2331,37,very difficult to read,13-04-2019 18:01
638,2.0,576.0,True,Non-designer,2,recognition,7,arial,enjoy,word,Probably seen,1.0,seen,enjoy,2653,37,very difficult to read,13-04-2019 18:01
639,2.0,576.0,True,Non-designer,2,recognition,8,arial,revernment,non-word,Probably seen,0.0,not seen,revelopment,1795,37,very difficult to read,13-04-2019 18:01
640,2.0,576.0,True,Non-designer,2,recognition,9,arial,begar,non-word,Sure seen,1.0,seen,begar,1937,37,very difficult to read,13-04-2019 18:01
641,2.0,576.0,True,Non-designer,2,recognition,10,arial,garance,non-word,Probably not seen,1.0,not seen,gallowned,2406,37,very difficult to read,13-04-2019 18:01
642,2.0,576.0,True,Non-designer,2,recognition,11,arial,activities,word,Sure seen,1.0,seen,activities,1845,37,very difficult to read,13-04-2019 18:01
643,2.0,576.0,True,Non-designer,2,recognition,12,arial,lovessions,non-word,Probably not seen,0.0,seen,lovessions,2146,37,very difficult to read,13-04-2019 18:01
644,2.0,576.0,True,Non-designer,2,recognition,13,arial,gatted,non-word,Sure seen,1.0,seen,gatted,2162,37,very difficult to read,13-04-2019 18:01
645,2.0,576.0,True,Non-designer,2,recognition,14,arial,relatric,non-word,Probably not seen,1.0,not seen,relaterial,2624,37,very difficult to read,13-04-2019 18:01
646,2.0,576.0,True,Non-designer,2,recognition,15,arial,studies,word,Sure seen,1.0,seen,studies,1824,37,very difficult to read,13-04-2019 18:01
647,2.0,576.0,True,Non-designer,2,recognition,16,arial,square,word,Probably seen,0.0,not seen,spring,3075,37,very difficult to read,13-04-2019 18:01
648,2.0,648.0,True,Non-designer,1,lexical,1,arial,higher,word,Sure word,1.0,,,2132,65,very easy to read,13-04-2019 17:29
649,2.0,648.0,True,Non-designer,1,lexical,2,arial,played,word,Sure word,1.0,,,2311,65,very easy to read,13-04-2019 17:29
650,2.0,648.0,True,Non-designer,1,lexical,3,arial,varearing,non-word,Sure non-word,1.0,,,2517,65,very easy to read,13-04-2019 17:29
651,2.0,648.0,True,Non-designer,1,lexical,4,arial,wates,non-word,Sure non-word,1.0,,,3344,65,very easy to read,13-04-2019 17:29
652,2.0,648.0,True,Non-designer,1,lexical,5,arial,undouring,non-word,Sure non-word,1.0,,,2321,65,very easy to read,13-04-2019 17:29
653,2.0,648.0,True,Non-designer,1,lexical,6,arial,anywhere,word,Sure word,1.0,,,1802,65,very easy to read,13-04-2019 17:29
654,2.0,648.0,True,Non-designer,1,lexical,7,arial,filled,word,Sure word,1.0,,,1753,65,very easy to read,13-04-2019 17:29
655,2.0,648.0,True,Non-designer,1,lexical,8,arial,authorities,word,Sure word,1.0,,,2021,65,very easy to read,13-04-2019 17:29
656,2.0,648.0,True,Non-designer,1,lexical,9,arial,drawn,word,Sure word,1.0,,,1459,65,very easy to read,13-04-2019 17:29
657,2.0,648.0,True,Non-designer,1,lexical,10,arial,telling,word,Sure word,1.0,,,1477,65,very easy to read,13-04-2019 17:29
658,2.0,648.0,True,Non-designer,1,lexical,11,arial,centre,word,Sure word,1.0,,,1356,65,very easy to read,13-04-2019 17:29
659,2.0,648.0,True,Non-designer,1,lexical,12,arial,picture,word,Sure word,1.0,,,1342,65,very easy to read,13-04-2019 17:29
660,2.0,648.0,True,Non-designer,1,lexical,13,arial,leceived,non-word,Sure non-word,1.0,,,2362,65,very easy to read,13-04-2019 17:29
661,2.0,648.0,True,Non-designer,1,lexical,14,arial,least,word,Sure word,1.0,,,1612,65,very easy to read,13-04-2019 17:29
662,2.0,648.0,True,Non-designer,1,lexical,15,arial,absturable,non-word,Probably non-word,1.0,,,2791,65,very easy to read,13-04-2019 17:29
663,2.0,648.0,True,Non-designer,1,lexical,16,arial,pearmas,non-word,Sure non-word,1.0,,,2032,65,very easy to read,13-04-2019 17:29
664,2.0,648.0,True,Non-designer,1,lexical,17,arial,sugmaling,non-word,Sure non-word,1.0,,,2030,65,very easy to read,13-04-2019 17:29
665,2.0,648.0,True,Non-designer,1,lexical,18,arial,mastruntion,non-word,Sure non-word,1.0,,,2747,65,very easy to read,13-04-2019 17:29
666,2.0,648.0,True,Non-designer,1,lexical,19,arial,apprest,non-word,Sure non-word,1.0,,,2030,65,very easy to read,13-04-2019 17:29
667,2.0,648.0,True,Non-designer,1,lexical,20,arial,alteriously,non-word,Probably non-word,1.0,,,2276,65,very easy to read,13-04-2019 17:29
668,2.0,648.0,True,Non-designer,1,recognition,1,sansforgetica,varearing,non-word,Sure seen,1.0,seen,varearing,4386,65,very easy to read,13-04-2019 17:29
669,2.0,648.0,True,Non-designer,1,recognition,2,sansforgetica,apart,word,Probably not seen,1.0,not seen,anywhere,3348,65,very easy to read,13-04-2019 17:29
670,2.0,648.0,True,Non-designer,1,recognition,3,sansforgetica,lecieve,non-word,Sure seen,0.0,not seen,leceived,2029,65,very easy to read,13-04-2019 17:29
671,2.0,648.0,True,Non-designer,1,recognition,4,sansforgetica,highly,word,Probably seen,0.0,not seen,higher,2664,65,very easy to read,13-04-2019 17:29
672,2.0,648.0,True,Non-designer,1,recognition,5,sansforgetica,picture,word,Sure seen,1.0,seen,picture,1549,65,very easy to read,13-04-2019 17:29
673,2.0,648.0,True,Non-designer,1,recognition,6,sansforgetica,terms,word,Sure not seen,1.0,not seen,telling,1799,65,very easy to read,13-04-2019 17:29
674,2.0,648.0,True,Non-designer,1,recognition,7,sansforgetica,drawn,word,Sure seen,1.0,seen,drawn,2013,65,very easy to read,13-04-2019 17:29
675,2.0,648.0,True,Non-designer,1,recognition,8,sansforgetica,althdren,non-word,Sure not seen,1.0,not seen,alteriously,2181,65,very easy to read,13-04-2019 17:29
676,2.0,648.0,True,Non-designer,1,recognition,9,sansforgetica,pearmas,non-word,Sure seen,1.0,seen,pearmas,2399,65,very easy to read,13-04-2019 17:29
677,2.0,648.0,True,Non-designer,1,recognition,10,sansforgetica,absturable,non-word,Probably seen,1.0,seen,absturable,2681,65,very easy to read,13-04-2019 17:29
678,2.0,648.0,True,Non-designer,1,recognition,11,sansforgetica,wathed,non-word,Sure not seen,1.0,not seen,wates,2053,65,very easy to read,13-04-2019 17:29
679,2.0,648.0,True,Non-designer,1,recognition,12,sansforgetica,mastruntion,non-word,Sure seen,1.0,seen,mastruntion,1988,65,very easy to read,13-04-2019 17:29
680,2.0,648.0,True,Non-designer,1,recognition,13,sansforgetica,arges,non-word,Probably not seen,1.0,not seen,apprest,2500,65,very easy to read,13-04-2019 17:29
681,2.0,648.0,True,Non-designer,1,recognition,14,sansforgetica,playing,word,Sure seen,0.0,not seen,played,1628,65,very easy to read,13-04-2019 17:29
682,2.0,648.0,True,Non-designer,1,recognition,15,sansforgetica,centre,word,Sure seen,1.0,seen,centre,2128,65,very easy to read,13-04-2019 17:29
683,2.0,648.0,True,Non-designer,1,recognition,16,sansforgetica,filled,word,Probably seen,1.0,seen,filled,2278,65,very easy to read,13-04-2019 17:29
684,2.0,648.0,True,Non-designer,2,lexical,1,sansforgetica,between,word,Sure word,1.0,,,3992,52,very difficult to read,13-04-2019 17:29
685,2.0,648.0,True,Non-designer,2,lexical,2,sansforgetica,daily,word,Sure word,1.0,,,1454,52,very difficult to read,13-04-2019 17:29
686,2.0,648.0,True,Non-designer,2,lexical,3,sansforgetica,material,word,Sure word,1.0,,,1689,52,very difficult to read,13-04-2019 17:29
687,2.0,648.0,True,Non-designer,2,lexical,4,sansforgetica,aroult,non-word,Sure non-word,1.0,,,2617,52,very difficult to read,13-04-2019 17:29
688,2.0,648.0,True,Non-designer,2,lexical,5,sansforgetica,personal,word,Sure word,1.0,,,2143,52,very difficult to read,13-04-2019 17:29
689,2.0,648.0,True,Non-designer,2,lexical,6,sansforgetica,hands,word,Sure word,1.0,,,2947,52,very difficult to read,13-04-2019 17:29
690,2.0,648.0,True,Non-designer,2,lexical,7,sansforgetica,cenism,non-word,Sure non-word,1.0,,,2191,52,very difficult to read,13-04-2019 17:29
691,2.0,648.0,True,Non-designer,2,lexical,8,sansforgetica,tealissed,non-word,Sure non-word,1.0,,,1986,52,very difficult to read,13-04-2019 17:29
692,2.0,648.0,True,Non-designer,2,lexical,9,sansforgetica,moventive,non-word,Probably non-word,1.0,,,2853,52,very difficult to read,13-04-2019 17:29
693,2.0,648.0,True,Non-designer,2,lexical,10,sansforgetica,fellow,word,Sure word,1.0,,,1569,52,very difficult to read,13-04-2019 17:29
694,2.0,648.0,True,Non-designer,2,lexical,11,sansforgetica,watching,word,Sure word,1.0,,,2356,52,very difficult to read,13-04-2019 17:29
695,2.0,648.0,True,Non-designer,2,lexical,12,sansforgetica,strength,word,Sure word,1.0,,,1664,52,very difficult to read,13-04-2019 17:29
696,2.0,648.0,True,Non-designer,2,lexical,13,sansforgetica,tonight,word,Sure word,1.0,,,1369,52,very difficult to read,13-04-2019 17:29
697,2.0,648.0,True,Non-designer,2,lexical,14,sansforgetica,espeatives,non-word,Sure non-word,1.0,,,2286,52,very difficult to read,13-04-2019 17:29
698,2.0,648.0,True,Non-designer,2,lexical,15,sansforgetica,possecapped,non-word,Sure non-word,1.0,,,1625,52,very difficult to read,13-04-2019 17:29
699,2.0,648.0,True,Non-designer,2,lexical,16,sansforgetica,crusaged,non-word,Probably non-word,1.0,,,2282,52,very difficult to read,13-04-2019 17:29
700,2.0,648.0,True,Non-designer,2,lexical,17,sansforgetica,example,word,Sure word,1.0,,,1578,52,very difficult to read,13-04-2019 17:29
701,2.0,648.0,True,Non-designer,2,lexical,18,sansforgetica,appormation,non-word,Sure non-word,1.0,,,3552,52,very difficult to read,13-04-2019 17:29
702,2.0,648.0,True,Non-designer,2,lexical,19,sansforgetica,puscest,non-word,Sure non-word,1.0,,,1728,52,very difficult to read,13-04-2019 17:29
703,2.0,648.0,True,Non-designer,2,lexical,20,sansforgetica,emposprism,non-word,Probably non-word,1.0,,,3473,52,very difficult to read,13-04-2019 17:29
704,2.0,648.0,True,Non-designer,2,recognition,1,arial,water,word,Probably not seen,1.0,not seen,watching,3056,52,very difficult to read,13-04-2019 17:29
705,2.0,648.0,True,Non-designer,2,recognition,2,arial,appormation,non-word,Probably seen,1.0,seen,appormation,2608,52,very difficult to read,13-04-2019 17:29
706,2.0,648.0,True,Non-designer,2,recognition,3,arial,emposprism,non-word,Sure seen,1.0,seen,emposprism,2817,52,very difficult to read,13-04-2019 17:29
707,2.0,648.0,True,Non-designer,2,recognition,4,arial,arrearature,non-word,Probably seen,0.0,not seen,aroult,2020,52,very difficult to read,13-04-2019 17:29
708,2.0,648.0,True,Non-designer,2,recognition,5,arial,hands,word,Probably seen,1.0,seen,hands,1866,52,very difficult to read,13-04-2019 17:29
709,2.0,648.0,True,Non-designer,2,recognition,6,arial,female,word,Sure not seen,1.0,not seen,fellow,1810,52,very difficult to read,13-04-2019 17:29
710,2.0,648.0,True,Non-designer,2,recognition,7,arial,moverture,non-word,Probably not seen,1.0,not seen,moventive,1921,52,very difficult to read,13-04-2019 17:29
711,2.0,648.0,True,Non-designer,2,recognition,8,arial,crusaged,non-word,Probably not seen,0.0,seen,crusaged,1879,52,very difficult to read,13-04-2019 17:29
712,2.0,648.0,True,Non-designer,2,recognition,9,arial,example,word,Sure seen,1.0,seen,example,2183,52,very difficult to read,13-04-2019 17:29
713,2.0,648.0,True,Non-designer,2,recognition,10,arial,matter,word,Probably seen,0.0,not seen,material,2405,52,very difficult to read,13-04-2019 17:29
714,2.0,648.0,True,Non-designer,2,recognition,11,arial,tonight,word,Sure seen,1.0,seen,tonight,1373,52,very difficult to read,13-04-2019 17:29
715,2.0,648.0,True,Non-designer,2,recognition,12,arial,between,word,Sure seen,1.0,seen,between,1437,52,very difficult to read,13-04-2019 17:29
716,2.0,648.0,True,Non-designer,2,recognition,13,arial,damage,word,Probably not seen,1.0,not seen,daily,2884,52,very difficult to read,13-04-2019 17:29
717,2.0,648.0,True,Non-designer,2,recognition,14,arial,cenism,non-word,Sure not seen,0.0,seen,cenism,2044,52,very difficult to read,13-04-2019 17:29
718,2.0,648.0,True,Non-designer,2,recognition,15,arial,teliquely,non-word,Sure not seen,1.0,not seen,tealissed,1689,52,very difficult to read,13-04-2019 17:29
719,2.0,648.0,True,Non-designer,2,recognition,16,arial,possiols,non-word,Sure not seen,1.0,not seen,possecapped,1429,52,very difficult to read,13-04-2019 17:29
720,2.0,720.0,True,Non-designer,1,lexical,1,arial,master,word,Sure word,1.0,,,3116,75,very easy to read,13-04-2019 17:25
721,2.0,720.0,True,Non-designer,1,lexical,2,arial,disease,word,Sure word,1.0,,,1685,75,very easy to read,13-04-2019 17:25
722,2.0,720.0,True,Non-designer,1,lexical,3,arial,ought,word,Sure word,1.0,,,1506,75,very easy to read,13-04-2019 17:25
723,2.0,720.0,True,Non-designer,1,lexical,4,arial,unformately,non-word,Sure non-word,1.0,,,3364,75,very easy to read,13-04-2019 17:25
724,2.0,720.0,True,Non-designer,1,lexical,5,arial,adjuntives,non-word,Sure non-word,1.0,,,4201,75,very easy to read,13-04-2019 17:25
725,2.0,720.0,True,Non-designer,1,lexical,6,arial,especially,word,Sure word,1.0,,,1818,75,very easy to read,13-04-2019 17:25
