,Study ID,Participant ID,Fluent,Training,Test ID,Test type,Trial ID,Font,Sample,Category,Response,Correct,Seen,Foil,Response time,JoM,JoL,Date
0,2,0,True,Other designer,1,lexical,1,arial,capital,word,Sure word,1.0,,,3510,50,very easy to read,03-05-2019 16:24
1,2,0,True,Other designer,1,lexical,2,arial,chief,word,Sure word,1.0,,,4223,50,very easy to read,03-05-2019 16:24
2,2,0,True,Other designer,1,lexical,3,arial,handence,non-word,Sure non-word,1.0,,,2446,50,very easy to read,03-05-2019 16:24
3,2,0,True,Other designer,1,lexical,4,arial,mobiever,non-word,Sure non-word,1.0,,,1859,50,very easy to read,03-05-2019 16:24
4,2,0,True,Other designer,1,lexical,5,arial,designed,word,Sure word,1.0,,,2656,50,very easy to read,03-05-2019 16:24
5,2,0,True,Other designer,1,lexical,6,arial,everybody,word,Sure word,1.0,,,2303,50,very easy to read,03-05-2019 16:24
6,2,0,True,Other designer,1,lexical,7,arial,studity,non-word,Sure non-word,1.0,,,1738,50,very easy to read,03-05-2019 16:24
7,2,0,True,Other designer,1,lexical,8,arial,desposed,non-word,Sure non-word,1.0,,,5534,50,very easy to read,03-05-2019 16:24
8,2,0,True,Other designer,1,lexical,9,arial,cigarette,word,Sure word,1.0,,,1409,50,very easy to read,03-05-2019 16:24
9,2,0,True,Other designer,1,lexical,10,arial,therinder,non-word,Sure non-word,1.0,,,1824,50,very easy to read,03-05-2019 16:24
10,2,0,True,Other designer,1,lexical,11,arial,teliquely,non-word,Sure non-word,1.0,,,2342,50,very easy to read,03-05-2019 16:24
11,2,0,True,Other designer,1,lexical,12,arial,bothin,non-word,Sure non-word,1.0,,,1956,50,very easy to read,03-05-2019 16:24
12,2,0,True,Other designer,1,lexical,13,arial,speech,word,Sure word,1.0,,,1194,50,very easy to read,03-05-2019 16:24
13,2,0,True,Other designer,1,lexical,14,arial,linally,non-word,Sure non-word,1.0,,,1733,50,very easy to read,03-05-2019 16:24
14,2,0,True,Other designer,1,lexical,15,arial,sounds,word,Sure word,1.0,,,1041,50,very easy to read,03-05-2019 16:24
15,2,0,True,Other designer,1,lexical,16,arial,expedintly,non-word,Sure non-word,1.0,,,3260,50,very easy to read,03-05-2019 16:24
16,2,0,True,Other designer,1,lexical,17,arial,spoke,word,Sure word,1.0,,,1405,50,very easy to read,03-05-2019 16:24
17,2,0,True,Other designer,1,lexical,18,arial,hospital,word,Sure word,1.0,,,1075,50,very easy to read,03-05-2019 16:24
18,2,0,True,Other designer,1,lexical,19,arial,recent,word,Sure non-word,0.0,,,2984,50,very easy to read,03-05-2019 16:24
19,2,0,True,Other designer,1,lexical,20,arial,espeatives,non-word,Sure non-word,1.0,,,2090,50,very easy to read,03-05-2019 16:24
20,2,0,True,Other designer,1,recognition,1,sansforgetica,studymer,non-word,Sure not seen,1.0,not seen,studity,8513,50,very easy to read,03-05-2019 16:24
21,2,0,True,Other designer,1,recognition,2,sansforgetica,linally,non-word,Sure seen,1.0,seen,linally,2048,50,very easy to read,03-05-2019 16:24
22,2,0,True,Other designer,1,recognition,3,sansforgetica,speech,word,Sure seen,1.0,seen,speech,1215,50,very easy to read,03-05-2019 16:24
23,2,0,True,Other designer,1,recognition,4,sansforgetica,capital,word,Sure seen,1.0,seen,capital,1950,50,very easy to read,03-05-2019 16:24
24,2,0,True,Other designer,1,recognition,5,sansforgetica,designed,word,Sure seen,1.0,seen,designed,1040,50,very easy to read,03-05-2019 16:24
25,2,0,True,Other designer,1,recognition,6,sansforgetica,desposed,non-word,Sure seen,1.0,seen,desposed,2355,50,very easy to read,03-05-2019 16:24
26,2,0,True,Other designer,1,recognition,7,sansforgetica,bountions,non-word,Sure not seen,1.0,not seen,bothin,2077,50,very easy to read,03-05-2019 16:24
27,2,0,True,Other designer,1,recognition,8,sansforgetica,handence,non-word,Probably seen,1.0,seen,handence,8516,50,very easy to read,03-05-2019 16:24
28,2,0,True,Other designer,1,recognition,9,sansforgetica,everyone,word,Sure not seen,1.0,not seen,everybody,2410,50,very easy to read,03-05-2019 16:24
29,2,0,True,Other designer,1,recognition,10,sansforgetica,children,word,Sure not seen,1.0,not seen,chief,1440,50,very easy to read,03-05-2019 16:24
30,2,0,True,Other designer,1,recognition,11,sansforgetica,mocietary,non-word,Sure not seen,1.0,not seen,mobiever,1417,50,very easy to read,03-05-2019 16:24
31,2,0,True,Other designer,1,recognition,12,sansforgetica,recently,word,Sure not seen,1.0,not seen,recent,3405,50,very easy to read,03-05-2019 16:24
32,2,0,True,Other designer,1,recognition,13,sansforgetica,therinder,non-word,Sure seen,1.0,seen,therinder,4731,50,very easy to read,03-05-2019 16:24
33,2,0,True,Other designer,1,recognition,14,sansforgetica,temarrences,non-word,Sure not seen,1.0,not seen,teliquely,1570,50,very easy to read,03-05-2019 16:24
34,2,0,True,Other designer,1,recognition,15,sansforgetica,hospital,word,Sure seen,1.0,seen,hospital,1512,50,very easy to read,03-05-2019 16:24
35,2,0,True,Other designer,1,recognition,16,sansforgetica,cities,word,Sure not seen,1.0,not seen,cigarette,1324,50,very easy to read,03-05-2019 16:24
36,2,0,True,Other designer,2,lexical,1,sansforgetica,vehients,non-word,Sure non-word,1.0,,,5402,50,easy to read,03-05-2019 16:24
37,2,0,True,Other designer,2,lexical,2,sansforgetica,fixed,word,Sure word,1.0,,,1584,50,easy to read,03-05-2019 16:24
38,2,0,True,Other designer,2,lexical,3,sansforgetica,crevided,non-word,Sure non-word,1.0,,,2375,50,easy to read,03-05-2019 16:24
39,2,0,True,Other designer,2,lexical,4,sansforgetica,burropright,non-word,Sure non-word,1.0,,,1482,50,easy to read,03-05-2019 16:24
40,2,0,True,Other designer,2,lexical,5,sansforgetica,windom,non-word,Sure non-word,1.0,,,5200,50,easy to read,03-05-2019 16:24
41,2,0,True,Other designer,2,lexical,6,sansforgetica,every,word,Sure word,1.0,,,2026,50,easy to read,03-05-2019 16:24
42,2,0,True,Other designer,2,lexical,7,sansforgetica,winter,word,Sure word,1.0,,,1178,50,easy to read,03-05-2019 16:24
43,2,0,True,Other designer,2,lexical,8,sansforgetica,contrucrate,non-word,Sure non-word,1.0,,,2364,50,easy to read,03-05-2019 16:24
44,2,0,True,Other designer,2,lexical,9,sansforgetica,campetaring,non-word,Sure non-word,1.0,,,3441,50,easy to read,03-05-2019 16:24
45,2,0,True,Other designer,2,lexical,10,sansforgetica,increasing,word,Sure word,1.0,,,1961,50,easy to read,03-05-2019 16:24
46,2,0,True,Other designer,2,lexical,11,sansforgetica,drison,non-word,Sure non-word,1.0,,,1547,50,easy to read,03-05-2019 16:24
47,2,0,True,Other designer,2,lexical,12,sansforgetica,eigagement,non-word,Sure non-word,1.0,,,2247,50,easy to read,03-05-2019 16:24
48,2,0,True,Other designer,2,lexical,13,sansforgetica,perfect,word,Sure word,1.0,,,1603,50,easy to read,03-05-2019 16:24
49,2,0,True,Other designer,2,lexical,14,sansforgetica,smiled,word,Sure word,1.0,,,1047,50,easy to read,03-05-2019 16:24
50,2,0,True,Other designer,2,lexical,15,sansforgetica,calls,word,Sure word,1.0,,,1152,50,easy to read,03-05-2019 16:24
51,2,0,True,Other designer,2,lexical,16,sansforgetica,spread,word,Sure word,1.0,,,1075,50,easy to read,03-05-2019 16:24
52,2,0,True,Other designer,2,lexical,17,sansforgetica,adjuntives,non-word,Sure non-word,1.0,,,2616,50,easy to read,03-05-2019 16:24
53,2,0,True,Other designer,2,lexical,18,sansforgetica,campaign,word,Sure word,1.0,,,1143,50,easy to read,03-05-2019 16:24
54,2,0,True,Other designer,2,lexical,19,sansforgetica,stories,word,Sure word,1.0,,,1090,50,easy to read,03-05-2019 16:24
55,2,0,True,Other designer,2,lexical,20,sansforgetica,diffesses,non-word,Sure non-word,1.0,,,2751,50,easy to read,03-05-2019 16:24
56,2,0,True,Other designer,2,recognition,1,arial,eigagement,non-word,Sure seen,1.0,seen,eigagement,5140,50,easy to read,03-05-2019 16:24
57,2,0,True,Other designer,2,recognition,2,arial,campaign,word,Sure seen,1.0,seen,campaign,1366,50,easy to read,03-05-2019 16:24
58,2,0,True,Other designer,2,recognition,3,arial,perfect,word,Sure seen,1.0,seen,perfect,1460,50,easy to read,03-05-2019 16:24
59,2,0,True,Other designer,2,recognition,4,arial,flesh,word,Probably not seen,1.0,not seen,fixed,7374,50,easy to read,03-05-2019 16:24
60,2,0,True,Other designer,2,recognition,5,arial,creviver,non-word,Probably not seen,1.0,not seen,crevided,5161,50,easy to read,03-05-2019 16:24
61,2,0,True,Other designer,2,recognition,6,arial,windom,non-word,Sure seen,1.0,seen,windom,1673,50,easy to read,03-05-2019 16:24
62,2,0,True,Other designer,2,recognition,7,arial,spring,word,Sure not seen,1.0,not seen,spread,2191,50,easy to read,03-05-2019 16:24
63,2,0,True,Other designer,2,recognition,8,arial,drojects,non-word,Sure not seen,1.0,not seen,drison,3498,50,easy to read,03-05-2019 16:24
64,2,0,True,Other designer,2,recognition,9,arial,camputers,non-word,Probably seen,0.0,not seen,campetaring,2958,50,easy to read,03-05-2019 16:24
65,2,0,True,Other designer,2,recognition,10,arial,winter,word,Probably not seen,0.0,seen,winter,13605,50,easy to read,03-05-2019 16:24
66,2,0,True,Other designer,2,recognition,11,arial,calls,word,Sure not seen,0.0,seen,calls,4071,50,easy to read,03-05-2019 16:24
67,2,0,True,Other designer,2,recognition,12,arial,burropright,non-word,Probably seen,1.0,seen,burropright,5665,50,easy to read,03-05-2019 16:24
68,2,0,True,Other designer,2,recognition,13,arial,diffesses,non-word,Sure seen,1.0,seen,diffesses,1676,50,easy to read,03-05-2019 16:24
69,2,0,True,Other designer,2,recognition,14,arial,smoke,word,Sure not seen,1.0,not seen,smiled,4857,50,easy to read,03-05-2019 16:24
70,2,0,True,Other designer,2,recognition,15,arial,contructors,non-word,Probably seen,0.0,not seen,contrucrate,1794,50,easy to read,03-05-2019 16:24
71,2,0,True,Other designer,2,recognition,16,arial,indeed,word,Sure not seen,1.0,not seen,increasing,1224,50,easy to read,03-05-2019 16:24
72,2,72,False,Other designer,1,lexical,1,arial,fight,word,Sure word,1.0,,,3298,60,ok,02-05-2019 19:17
73,2,72,False,Other designer,1,lexical,2,arial,cheneved,non-word,Probably non-word,1.0,,,4333,60,ok,02-05-2019 19:17
74,2,72,False,Other designer,1,lexical,3,arial,potervation,non-word,Probably word,0.0,,,5812,60,ok,02-05-2019 19:17
75,2,72,False,Other designer,1,lexical,4,arial,partly,word,Sure word,1.0,,,4268,60,ok,02-05-2019 19:17
76,2,72,False,Other designer,1,lexical,5,arial,burropright,non-word,Probably non-word,1.0,,,5263,60,ok,02-05-2019 19:17
77,2,72,False,Other designer,1,lexical,6,arial,deeply,word,Sure word,1.0,,,2929,60,ok,02-05-2019 19:17
78,2,72,False,Other designer,1,lexical,7,arial,worth,word,Sure word,1.0,,,1543,60,ok,02-05-2019 19:17
79,2,72,False,Other designer,1,lexical,8,arial,conguage,non-word,Probably word,0.0,,,5334,60,ok,02-05-2019 19:17
80,2,72,False,Other designer,1,lexical,9,arial,fraditted,non-word,Probably non-word,1.0,,,2757,60,ok,02-05-2019 19:17
81,2,72,False,Other designer,1,lexical,10,arial,economic,word,Sure word,1.0,,,2351,60,ok,02-05-2019 19:17
82,2,72,False,Other designer,1,lexical,11,arial,discovered,word,Sure word,1.0,,,3347,60,ok,02-05-2019 19:17
83,2,72,False,Other designer,1,lexical,12,arial,parearch,non-word,Probably non-word,1.0,,,8083,60,ok,02-05-2019 19:17
84,2,72,False,Other designer,1,lexical,13,arial,relief,word,Sure word,1.0,,,2804,60,ok,02-05-2019 19:17
85,2,72,False,Other designer,1,lexical,14,arial,political,word,Sure word,1.0,,,3278,60,ok,02-05-2019 19:17
86,2,72,False,Other designer,1,lexical,15,arial,nobit,non-word,Probably non-word,1.0,,,3643,60,ok,02-05-2019 19:17
87,2,72,False,Other designer,1,lexical,16,arial,groups,word,Sure non-word,0.0,,,5944,60,ok,02-05-2019 19:17
88,2,72,False,Other designer,1,lexical,17,arial,rather,word,Sure word,1.0,,,2136,60,ok,02-05-2019 19:17
89,2,72,False,Other designer,1,lexical,18,arial,forgotter,non-word,Probably word,0.0,,,5326,60,ok,02-05-2019 19:17
90,2,72,False,Other designer,1,lexical,19,arial,outting,non-word,Sure non-word,1.0,,,5214,60,ok,02-05-2019 19:17
91,2,72,False,Other designer,1,lexical,20,arial,stready,non-word,Probably non-word,1.0,,,6581,60,ok,02-05-2019 19:17
92,2,72,False,Other designer,1,recognition,1,sansforgetica,nodief,non-word,Probably seen,0.0,not seen,nobit,8177,60,ok,02-05-2019 19:17
93,2,72,False,Other designer,1,recognition,2,sansforgetica,religious,word,Sure not seen,1.0,not seen,relief,5721,60,ok,02-05-2019 19:17
94,2,72,False,Other designer,1,recognition,3,sansforgetica,fraditted,non-word,Sure seen,1.0,seen,fraditted,3773,60,ok,02-05-2019 19:17
95,2,72,False,Other designer,1,recognition,4,sansforgetica,parts,word,Probably seen,0.0,not seen,partly,4052,60,ok,02-05-2019 19:17
96,2,72,False,Other designer,1,recognition,5,sansforgetica,growing,word,Sure not seen,1.0,not seen,groups,1570,60,ok,02-05-2019 19:17
97,2,72,False,Other designer,1,recognition,6,sansforgetica,economic,word,Sure seen,1.0,seen,economic,1622,60,ok,02-05-2019 19:17
98,2,72,False,Other designer,1,recognition,7,sansforgetica,potervies,non-word,Sure not seen,1.0,not seen,potervation,3320,60,ok,02-05-2019 19:17
99,2,72,False,Other designer,1,recognition,8,sansforgetica,fight,word,Sure seen,1.0,seen,fight,1435,60,ok,02-05-2019 19:17
100,2,72,False,Other designer,1,recognition,9,sansforgetica,rather,word,Sure seen,1.0,seen,rather,1084,60,ok,02-05-2019 19:17
101,2,72,False,Other designer,1,recognition,10,sansforgetica,cheneved,non-word,Probably seen,1.0,seen,cheneved,5243,60,ok,02-05-2019 19:17
102,2,72,False,Other designer,1,recognition,11,sansforgetica,stronans,non-word,Sure not seen,1.0,not seen,stready,4470,60,ok,02-05-2019 19:17
103,2,72,False,Other designer,1,recognition,12,sansforgetica,discovered,word,Sure seen,1.0,seen,discovered,1487,60,ok,02-05-2019 19:17
104,2,72,False,Other designer,1,recognition,13,sansforgetica,forwared,non-word,Sure not seen,1.0,not seen,forgotter,2247,60,ok,02-05-2019 19:17
105,2,72,False,Other designer,1,recognition,14,sansforgetica,parearch,non-word,Sure seen,1.0,seen,parearch,2874,60,ok,02-05-2019 19:17
106,2,72,False,Other designer,1,recognition,15,sansforgetica,defence,word,Sure not seen,1.0,not seen,deeply,1830,60,ok,02-05-2019 19:17
107,2,72,False,Other designer,1,recognition,16,sansforgetica,burropright,non-word,Sure seen,1.0,seen,burropright,3061,60,ok,02-05-2019 19:17
108,2,72,False,Other designer,2,lexical,1,sansforgetica,indertunity,non-word,Sure non-word,1.0,,,4563,60,very difficult to read,02-05-2019 19:17
109,2,72,False,Other designer,2,lexical,2,sansforgetica,ninished,non-word,Sure non-word,1.0,,,3634,60,very difficult to read,02-05-2019 19:17
110,2,72,False,Other designer,2,lexical,3,sansforgetica,regarded,word,Sure word,1.0,,,13082,60,very difficult to read,02-05-2019 19:17
111,2,72,False,Other designer,2,lexical,4,sansforgetica,plans,word,Sure word,1.0,,,2629,60,very difficult to read,02-05-2019 19:17
112,2,72,False,Other designer,2,lexical,5,sansforgetica,management,word,Sure word,1.0,,,2768,60,very difficult to read,02-05-2019 19:17
113,2,72,False,Other designer,2,lexical,6,sansforgetica,income,word,Sure word,1.0,,,1272,60,very difficult to read,02-05-2019 19:17
114,2,72,False,Other designer,2,lexical,7,sansforgetica,reasons,word,Sure word,1.0,,,1271,60,very difficult to read,02-05-2019 19:17
115,2,72,False,Other designer,2,lexical,8,sansforgetica,discersion,non-word,Probably word,0.0,,,5337,60,very difficult to read,02-05-2019 19:17
116,2,72,False,Other designer,2,lexical,9,sansforgetica,wathed,non-word,Sure word,0.0,,,4541,60,very difficult to read,02-05-2019 19:17
117,2,72,False,Other designer,2,lexical,10,sansforgetica,hontever,non-word,Probably non-word,1.0,,,6589,60,very difficult to read,02-05-2019 19:17
118,2,72,False,Other designer,2,lexical,11,sansforgetica,horeations,non-word,Probably word,0.0,,,5657,60,very difficult to read,02-05-2019 19:17
119,2,72,False,Other designer,2,lexical,12,sansforgetica,consiously,non-word,Sure word,0.0,,,2467,60,very difficult to read,02-05-2019 19:17
120,2,72,False,Other designer,2,lexical,13,sansforgetica,structure,word,Sure word,1.0,,,1762,60,very difficult to read,02-05-2019 19:17
121,2,72,False,Other designer,2,lexical,14,sansforgetica,countenth,non-word,Probably word,0.0,,,7771,60,very difficult to read,02-05-2019 19:17
122,2,72,False,Other designer,2,lexical,15,sansforgetica,prices,word,Sure word,1.0,,,1229,60,very difficult to read,02-05-2019 19:17
123,2,72,False,Other designer,2,lexical,16,sansforgetica,agaim,non-word,Sure word,0.0,,,1035,60,very difficult to read,02-05-2019 19:17
124,2,72,False,Other designer,2,lexical,17,sansforgetica,reaction,word,Sure word,1.0,,,2690,60,very difficult to read,02-05-2019 19:17
125,2,72,False,Other designer,2,lexical,18,sansforgetica,waste,word,Sure word,1.0,,,1300,60,very difficult to read,02-05-2019 19:17
126,2,72,False,Other designer,2,lexical,19,sansforgetica,talked,word,Sure word,1.0,,,1243,60,very difficult to read,02-05-2019 19:17
127,2,72,False,Other designer,2,lexical,20,sansforgetica,cuppened,non-word,Probably word,0.0,,,5874,60,very difficult to read,02-05-2019 19:17
128,2,72,False,Other designer,2,recognition,1,arial,wathed,non-word,Sure seen,1.0,seen,wathed,2862,60,very difficult to read,02-05-2019 19:17
129,2,72,False,Other designer,2,recognition,2,arial,counticks,non-word,Sure not seen,1.0,not seen,countenth,2851,60,very difficult to read,02-05-2019 19:17
130,2,72,False,Other designer,2,recognition,3,arial,ninished,non-word,Sure seen,1.0,seen,ninished,5289,60,very difficult to read,02-05-2019 19:17
131,2,72,False,Other designer,2,recognition,4,arial,reaction,word,Sure seen,1.0,seen,reaction,1433,60,very difficult to read,02-05-2019 19:17
132,2,72,False,Other designer,2,recognition,5,arial,structure,word,Sure seen,1.0,seen,structure,1007,60,very difficult to read,02-05-2019 19:17
133,2,72,False,Other designer,2,recognition,6,arial,waste,word,Sure seen,1.0,seen,waste,1082,60,very difficult to read,02-05-2019 19:17
134,2,72,False,Other designer,2,recognition,7,arial,indesphant,non-word,Probably not seen,1.0,not seen,indertunity,4501,60,very difficult to read,02-05-2019 19:17
135,2,72,False,Other designer,2,recognition,8,arial,regular,word,Probably seen,0.0,not seen,regarded,6256,60,very difficult to read,02-05-2019 19:17
136,2,72,False,Other designer,2,recognition,9,arial,hontever,non-word,Sure seen,1.0,seen,hontever,2016,60,very difficult to read,02-05-2019 19:17
137,2,72,False,Other designer,2,recognition,10,arial,taste,word,Sure not seen,1.0,not seen,talked,1619,60,very difficult to read,02-05-2019 19:17
138,2,72,False,Other designer,2,recognition,11,arial,hostead,non-word,Sure not seen,1.0,not seen,horeations,3737,60,very difficult to read,02-05-2019 19:17
139,2,72,False,Other designer,2,recognition,12,arial,received,word,Sure seen,0.0,not seen,reasons,1976,60,very difficult to read,02-05-2019 19:17
140,2,72,False,Other designer,2,recognition,13,arial,plants,word,Sure not seen,1.0,not seen,plans,2855,60,very difficult to read,02-05-2019 19:17
141,2,72,False,Other designer,2,recognition,14,arial,againes,non-word,Probably not seen,1.0,not seen,agaim,2761,60,very difficult to read,02-05-2019 19:17
142,2,72,False,Other designer,2,recognition,15,arial,management,word,Sure seen,1.0,seen,management,1336,60,very difficult to read,02-05-2019 19:17
143,2,72,False,Other designer,2,recognition,16,arial,consiously,non-word,Sure seen,1.0,seen,consiously,1538,60,very difficult to read,02-05-2019 19:17
144,2,144,False,Graphic designer,1,lexical,1,sansforgetica,night,word,Sure word,1.0,,,4754,41,easy to read,02-05-2019 18:34
145,2,144,False,Graphic designer,1,lexical,2,sansforgetica,waste,word,Sure word,1.0,,,2833,41,easy to read,02-05-2019 18:34
146,2,144,False,Graphic designer,1,lexical,3,sansforgetica,purpose,word,Sure word,1.0,,,2252,41,easy to read,02-05-2019 18:34
147,2,144,False,Graphic designer,1,lexical,4,sansforgetica,certain,word,Sure word,1.0,,,2579,41,easy to read,02-05-2019 18:34
148,2,144,False,Graphic designer,1,lexical,5,sansforgetica,feelings,word,Sure word,1.0,,,2104,41,easy to read,02-05-2019 18:34
149,2,144,False,Graphic designer,1,lexical,6,sansforgetica,macrector,non-word,Sure non-word,1.0,,,3500,41,easy to read,02-05-2019 18:34
150,2,144,False,Graphic designer,1,lexical,7,sansforgetica,outsing,non-word,Sure non-word,1.0,,,3700,41,easy to read,02-05-2019 18:34
151,2,144,False,Graphic designer,1,lexical,8,sansforgetica,mouth,word,Sure non-word,0.0,,,2416,41,easy to read,02-05-2019 18:34
152,2,144,False,Graphic designer,1,lexical,9,sansforgetica,sometched,non-word,Sure non-word,1.0,,,3166,41,easy to read,02-05-2019 18:34
153,2,144,False,Graphic designer,1,lexical,10,sansforgetica,steet,non-word,Sure non-word,1.0,,,4134,41,easy to read,02-05-2019 18:34
154,2,144,False,Graphic designer,1,lexical,11,sansforgetica,removed,word,Sure word,1.0,,,3179,41,easy to read,02-05-2019 18:34
155,2,144,False,Graphic designer,1,lexical,12,sansforgetica,proper,word,Sure word,1.0,,,1772,41,easy to read,02-05-2019 18:34
156,2,144,False,Graphic designer,1,lexical,13,sansforgetica,pushed,word,Sure word,1.0,,,1846,41,easy to read,02-05-2019 18:34
157,2,144,False,Graphic designer,1,lexical,14,sansforgetica,weitair,non-word,Sure non-word,1.0,,,3586,41,easy to read,02-05-2019 18:34
158,2,144,False,Graphic designer,1,lexical,15,sansforgetica,drices,non-word,Sure non-word,1.0,,,2185,41,easy to read,02-05-2019 18:34
159,2,144,False,Graphic designer,1,lexical,16,sansforgetica,fresh,word,Sure word,1.0,,,2265,41,easy to read,02-05-2019 18:34
160,2,144,False,Graphic designer,1,lexical,17,sansforgetica,occalution,non-word,Sure non-word,1.0,,,6852,41,easy to read,02-05-2019 18:34
161,2,144,False,Graphic designer,1,lexical,18,sansforgetica,valeamer,non-word,Sure non-word,1.0,,,5350,41,easy to read,02-05-2019 18:34
162,2,144,False,Graphic designer,1,lexical,19,sansforgetica,celaament,non-word,Sure non-word,1.0,,,2063,41,easy to read,02-05-2019 18:34
163,2,144,False,Graphic designer,1,lexical,20,sansforgetica,againes,non-word,Sure non-word,1.0,,,6769,41,easy to read,02-05-2019 18:34
164,2,144,False,Graphic designer,1,recognition,1,arial,purpose,word,Sure seen,1.0,seen,purpose,3328,41,easy to read,02-05-2019 18:34
165,2,144,False,Graphic designer,1,recognition,2,arial,mouth,word,Sure seen,1.0,seen,mouth,5221,41,easy to read,02-05-2019 18:34
166,2,144,False,Graphic designer,1,recognition,3,arial,welicase,non-word,Sure not seen,1.0,not seen,weitair,5865,41,easy to read,02-05-2019 18:34
167,2,144,False,Graphic designer,1,recognition,4,arial,stich,non-word,Sure not seen,1.0,not seen,steet,1566,41,easy to read,02-05-2019 18:34
168,2,144,False,Graphic designer,1,recognition,5,arial,property,word,Sure seen,0.0,not seen,proper,1601,41,easy to read,02-05-2019 18:34
169,2,144,False,Graphic designer,1,recognition,6,arial,aggreciled,non-word,Sure not seen,1.0,not seen,againes,1934,41,easy to read,02-05-2019 18:34
170,2,144,False,Graphic designer,1,recognition,7,arial,feels,word,Sure seen,0.0,not seen,feelings,2929,41,easy to read,02-05-2019 18:34
171,2,144,False,Graphic designer,1,recognition,8,arial,drices,non-word,Sure not seen,0.0,seen,drices,13071,41,easy to read,02-05-2019 18:34
172,2,144,False,Graphic designer,1,recognition,9,arial,fresh,word,Sure seen,1.0,seen,fresh,4900,41,easy to read,02-05-2019 18:34
173,2,144,False,Graphic designer,1,recognition,10,arial,valeamer,non-word,Sure seen,1.0,seen,valeamer,3032,41,easy to read,02-05-2019 18:34
174,2,144,False,Graphic designer,1,recognition,11,arial,watching,word,Sure not seen,1.0,not seen,waste,3101,41,easy to read,02-05-2019 18:34
175,2,144,False,Graphic designer,1,recognition,12,arial,sometions,non-word,Sure not seen,1.0,not seen,sometched,3819,41,easy to read,02-05-2019 18:34
176,2,144,False,Graphic designer,1,recognition,13,arial,celaament,non-word,Sure not seen,0.0,seen,celaament,3481,41,easy to read,02-05-2019 18:34
177,2,144,False,Graphic designer,1,recognition,14,arial,outsing,non-word,Sure not seen,0.0,seen,outsing,1464,41,easy to read,02-05-2019 18:34
178,2,144,False,Graphic designer,1,recognition,15,arial,certainly,word,Sure not seen,1.0,not seen,certain,3571,41,easy to read,02-05-2019 18:34
179,2,144,False,Graphic designer,1,recognition,16,arial,night,word,Sure seen,1.0,seen,night,1417,41,easy to read,02-05-2019 18:34
180,2,144,False,Graphic designer,2,lexical,1,arial,punner,non-word,Sure word,0.0,,,8765,71,easy to read,02-05-2019 18:34
181,2,144,False,Graphic designer,2,lexical,2,arial,store,word,Sure word,1.0,,,2949,71,easy to read,02-05-2019 18:34
182,2,144,False,Graphic designer,2,lexical,3,arial,technology,word,Sure word,1.0,,,2153,71,easy to read,02-05-2019 18:34
183,2,144,False,Graphic designer,2,lexical,4,arial,considenon,non-word,Sure non-word,1.0,,,2068,71,easy to read,02-05-2019 18:34
184,2,144,False,Graphic designer,2,lexical,5,arial,names,word,Sure word,1.0,,,1534,71,easy to read,02-05-2019 18:34
185,2,144,False,Graphic designer,2,lexical,6,arial,reports,word,Sure word,1.0,,,2883,71,easy to read,02-05-2019 18:34
186,2,144,False,Graphic designer,2,lexical,7,arial,nommidated,non-word,Sure word,0.0,,,3896,71,easy to read,02-05-2019 18:34
187,2,144,False,Graphic designer,2,lexical,8,arial,breath,word,Sure word,1.0,,,3204,71,easy to read,02-05-2019 18:34
188,2,144,False,Graphic designer,2,lexical,9,arial,costs,word,Sure word,1.0,,,1948,71,easy to read,02-05-2019 18:34
189,2,144,False,Graphic designer,2,lexical,10,arial,across,word,Sure word,1.0,,,1386,71,easy to read,02-05-2019 18:34
190,2,144,False,Graphic designer,2,lexical,11,arial,distance,word,Sure word,1.0,,,1348,71,easy to read,02-05-2019 18:34
191,2,144,False,Graphic designer,2,lexical,12,arial,television,word,Sure word,1.0,,,1434,71,easy to read,02-05-2019 18:34
192,2,144,False,Graphic designer,2,lexical,13,arial,alime,non-word,Sure word,0.0,,,1099,71,easy to read,02-05-2019 18:34
193,2,144,False,Graphic designer,2,lexical,14,arial,discomision,non-word,Sure non-word,1.0,,,3052,71,easy to read,02-05-2019 18:34
194,2,144,False,Graphic designer,2,lexical,15,arial,succuader,non-word,Sure non-word,1.0,,,1918,71,easy to read,02-05-2019 18:34
195,2,144,False,Graphic designer,2,lexical,16,arial,murching,non-word,Sure non-word,1.0,,,2333,71,easy to read,02-05-2019 18:34
196,2,144,False,Graphic designer,2,lexical,17,arial,cheneved,non-word,Sure non-word,1.0,,,2365,71,easy to read,02-05-2019 18:34
197,2,144,False,Graphic designer,2,lexical,18,arial,producties,non-word,Sure non-word,1.0,,,1725,71,easy to read,02-05-2019 18:34
198,2,144,False,Graphic designer,2,lexical,19,arial,afficled,non-word,Sure non-word,1.0,,,2385,71,easy to read,02-05-2019 18:34
199,2,144,False,Graphic designer,2,lexical,20,arial,could,word,Sure word,1.0,,,1493,71,easy to read,02-05-2019 18:34
200,2,144,False,Graphic designer,2,recognition,1,sansforgetica,purmater,non-word,Sure not seen,1.0,not seen,punner,3325,71,easy to read,02-05-2019 18:34
201,2,144,False,Graphic designer,2,recognition,2,sansforgetica,telling,word,Sure not seen,1.0,not seen,television,1991,71,easy to read,02-05-2019 18:34
202,2,144,False,Graphic designer,2,recognition,3,sansforgetica,names,word,Sure seen,1.0,seen,names,1682,71,easy to read,02-05-2019 18:34
203,2,144,False,Graphic designer,2,recognition,4,sansforgetica,nommidated,non-word,Sure seen,1.0,seen,nommidated,3799,71,easy to read,02-05-2019 18:34
204,2,144,False,Graphic designer,2,recognition,5,sansforgetica,afrifite,non-word,Sure not seen,1.0,not seen,afficled,1804,71,easy to read,02-05-2019 18:34
205,2,144,False,Graphic designer,2,recognition,6,sansforgetica,could,word,Sure seen,1.0,seen,could,5764,71,easy to read,02-05-2019 18:34
206,2,144,False,Graphic designer,2,recognition,7,sansforgetica,corner,word,Sure not seen,1.0,not seen,costs,1836,71,easy to read,02-05-2019 18:34
207,2,144,False,Graphic designer,2,recognition,8,sansforgetica,distance,word,Sure not seen,0.0,seen,distance,3049,71,easy to read,02-05-2019 18:34
208,2,144,False,Graphic designer,2,recognition,9,sansforgetica,proferounds,non-word,Sure not seen,1.0,not seen,producties,2535,71,easy to read,02-05-2019 18:34
209,2,144,False,Graphic designer,2,recognition,10,sansforgetica,allond,non-word,Sure not seen,1.0,not seen,alime,1618,71,easy to read,02-05-2019 18:34
210,2,144,False,Graphic designer,2,recognition,11,sansforgetica,murching,non-word,Sure not seen,0.0,seen,murching,1761,71,easy to read,02-05-2019 18:34
211,2,144,False,Graphic designer,2,recognition,12,sansforgetica,cheneved,non-word,Sure not seen,0.0,seen,cheneved,1387,71,easy to read,02-05-2019 18:34
212,2,144,False,Graphic designer,2,recognition,13,sansforgetica,succuader,non-word,Sure not seen,0.0,seen,succuader,1467,71,easy to read,02-05-2019 18:34
213,2,144,False,Graphic designer,2,recognition,14,sansforgetica,technology,word,Sure seen,1.0,seen,technology,1013,71,easy to read,02-05-2019 18:34
214,2,144,False,Graphic designer,2,recognition,15,sansforgetica,stories,word,Sure not seen,1.0,not seen,store,2528,71,easy to read,02-05-2019 18:34
215,2,144,False,Graphic designer,2,recognition,16,sansforgetica,actions,word,Sure not seen,1.0,not seen,across,2477,71,easy to read,02-05-2019 18:34
216,2,216,True,Graphic designer,1,lexical,1,arial,safety,word,Sure word,1.0,,,2245,24,ok,02-05-2019 14:43
217,2,216,True,Graphic designer,1,lexical,2,arial,weeks,word,Sure word,1.0,,,2657,24,ok,02-05-2019 14:43
218,2,216,True,Graphic designer,1,lexical,3,arial,becruit,non-word,Probably non-word,1.0,,,4384,24,ok,02-05-2019 14:43
219,2,216,True,Graphic designer,1,lexical,4,arial,intervating,non-word,Probably non-word,1.0,,,3276,24,ok,02-05-2019 14:43
220,2,216,True,Graphic designer,1,lexical,5,arial,holiday,word,Sure word,1.0,,,2059,24,ok,02-05-2019 14:43
221,2,216,True,Graphic designer,1,lexical,6,arial,danger,word,Sure word,1.0,,,5797,24,ok,02-05-2019 14:43
222,2,216,True,Graphic designer,1,lexical,7,arial,water,word,Sure word,1.0,,,1662,24,ok,02-05-2019 14:43
223,2,216,True,Graphic designer,1,lexical,8,arial,trambling,non-word,Probably word,0.0,,,2942,24,ok,02-05-2019 14:43
224,2,216,True,Graphic designer,1,lexical,9,arial,toward,word,Probably non-word,0.0,,,15442,24,ok,02-05-2019 14:43
225,2,216,True,Graphic designer,1,lexical,10,arial,labite,non-word,Probably non-word,1.0,,,2540,24,ok,02-05-2019 14:43
226,2,216,True,Graphic designer,1,lexical,11,arial,nobit,non-word,Probably non-word,1.0,,,1914,24,ok,02-05-2019 14:43
227,2,216,True,Graphic designer,1,lexical,12,arial,stronans,non-word,Sure non-word,1.0,,,1944,24,ok,02-05-2019 14:43
228,2,216,True,Graphic designer,1,lexical,13,arial,thank,word,Sure word,1.0,,,1834,24,ok,02-05-2019 14:43
229,2,216,True,Graphic designer,1,lexical,14,arial,efforts,word,Sure word,1.0,,,2130,24,ok,02-05-2019 14:43
230,2,216,True,Graphic designer,1,lexical,15,arial,several,word,Sure word,1.0,,,1516,24,ok,02-05-2019 14:43
231,2,216,True,Graphic designer,1,lexical,16,arial,whainest,non-word,Probably non-word,1.0,,,2861,24,ok,02-05-2019 14:43
232,2,216,True,Graphic designer,1,lexical,17,arial,impripling,non-word,Sure non-word,1.0,,,2138,24,ok,02-05-2019 14:43
233,2,216,True,Graphic designer,1,lexical,18,arial,compection,non-word,Probably non-word,1.0,,,2600,24,ok,02-05-2019 14:43
234,2,216,True,Graphic designer,1,lexical,19,arial,begar,non-word,Sure word,0.0,,,2337,24,ok,02-05-2019 14:43
235,2,216,True,Graphic designer,1,lexical,20,arial,religious,word,Sure word,1.0,,,3123,24,ok,02-05-2019 14:43
236,2,216,True,Graphic designer,1,recognition,1,sansforgetica,water,word,Sure seen,1.0,seen,water,3137,24,ok,02-05-2019 14:43
237,2,216,True,Graphic designer,1,recognition,2,sansforgetica,remain,word,Sure not seen,1.0,not seen,religious,3641,24,ok,02-05-2019 14:43
238,2,216,True,Graphic designer,1,recognition,3,sansforgetica,nobit,non-word,Sure seen,1.0,seen,nobit,2318,24,ok,02-05-2019 14:43
239,2,216,True,Graphic designer,1,recognition,4,sansforgetica,several,word,Probably seen,1.0,seen,several,3020,24,ok,02-05-2019 14:43
240,2,216,True,Graphic designer,1,recognition,5,sansforgetica,trambling,non-word,Probably seen,1.0,seen,trambling,2807,24,ok,02-05-2019 14:43
241,2,216,True,Graphic designer,1,recognition,6,sansforgetica,inverstand,non-word,Sure not seen,1.0,not seen,intervating,2752,24,ok,02-05-2019 14:43
242,2,216,True,Graphic designer,1,recognition,7,sansforgetica,dangerous,word,Probably seen,0.0,not seen,danger,2279,24,ok,02-05-2019 14:43
243,2,216,True,Graphic designer,1,recognition,8,sansforgetica,beginness,non-word,Sure not seen,1.0,not seen,begar,3703,24,ok,02-05-2019 14:43
244,2,216,True,Graphic designer,1,recognition,9,sansforgetica,holiday,word,Sure seen,1.0,seen,holiday,3961,24,ok,02-05-2019 14:43
245,2,216,True,Graphic designer,1,recognition,10,sansforgetica,compection,non-word,Sure seen,1.0,seen,compection,2237,24,ok,02-05-2019 14:43
246,2,216,True,Graphic designer,1,recognition,11,sansforgetica,toward,word,Sure seen,1.0,seen,toward,1546,24,ok,02-05-2019 14:43
247,2,216,True,Graphic designer,1,recognition,12,sansforgetica,lanistic,non-word,Sure not seen,1.0,not seen,labite,2047,24,ok,02-05-2019 14:43
248,2,216,True,Graphic designer,1,recognition,13,sansforgetica,theatre,word,Sure not seen,1.0,not seen,thank,1804,24,ok,02-05-2019 14:43
249,2,216,True,Graphic designer,1,recognition,14,sansforgetica,weight,word,Sure not seen,1.0,not seen,weeks,1530,24,ok,02-05-2019 14:43
250,2,216,True,Graphic designer,1,recognition,15,sansforgetica,stronans,non-word,Probably not seen,0.0,seen,stronans,3623,24,ok,02-05-2019 14:43
251,2,216,True,Graphic designer,1,recognition,16,sansforgetica,becret,non-word,Probably not seen,1.0,not seen,becruit,1985,24,ok,02-05-2019 14:43
252,2,216,True,Graphic designer,2,lexical,1,sansforgetica,exist,word,Sure word,1.0,,,7524,18,difficult to read,02-05-2019 14:43
253,2,216,True,Graphic designer,2,lexical,2,sansforgetica,interesting,word,Sure word,1.0,,,3464,18,difficult to read,02-05-2019 14:43
254,2,216,True,Graphic designer,2,lexical,3,sansforgetica,muscles,word,Sure word,1.0,,,4961,18,difficult to read,02-05-2019 14:43
255,2,216,True,Graphic designer,2,lexical,4,sansforgetica,alrence,non-word,Probably non-word,1.0,,,4051,18,difficult to read,02-05-2019 14:43
256,2,216,True,Graphic designer,2,lexical,5,sansforgetica,nodief,non-word,Probably non-word,1.0,,,6946,18,difficult to read,02-05-2019 14:43
257,2,216,True,Graphic designer,2,lexical,6,sansforgetica,employment,word,Sure word,1.0,,,2235,18,difficult to read,02-05-2019 14:43
258,2,216,True,Graphic designer,2,lexical,7,sansforgetica,given,word,Sure word,1.0,,,1565,18,difficult to read,02-05-2019 14:43
259,2,216,True,Graphic designer,2,lexical,8,sansforgetica,hysturably,non-word,Probably non-word,1.0,,,3376,18,difficult to read,02-05-2019 14:43
260,2,216,True,Graphic designer,2,lexical,9,sansforgetica,therefore,word,Sure word,1.0,,,2705,18,difficult to read,02-05-2019 14:43
261,2,216,True,Graphic designer,2,lexical,10,sansforgetica,staff,word,Sure word,1.0,,,1574,18,difficult to read,02-05-2019 14:43
262,2,216,True,Graphic designer,2,lexical,11,sansforgetica,contructors,non-word,Probably non-word,1.0,,,4931,18,difficult to read,02-05-2019 14:43
263,2,216,True,Graphic designer,2,lexical,12,sansforgetica,spent,word,Sure word,1.0,,,1619,18,difficult to read,02-05-2019 14:43
264,2,216,True,Graphic designer,2,lexical,13,sansforgetica,catuirented,non-word,Probably non-word,1.0,,,4467,18,difficult to read,02-05-2019 14:43
265,2,216,True,Graphic designer,2,lexical,14,sansforgetica,eather,non-word,Sure word,0.0,,,2417,18,difficult to read,02-05-2019 14:43
266,2,216,True,Graphic designer,2,lexical,15,sansforgetica,helped,word,Sure word,1.0,,,1661,18,difficult to read,02-05-2019 14:43
267,2,216,True,Graphic designer,2,lexical,16,sansforgetica,rights,word,Sure word,1.0,,,2331,18,difficult to read,02-05-2019 14:43
268,2,216,True,Graphic designer,2,lexical,17,sansforgetica,grocks,non-word,Probably non-word,1.0,,,4434,18,difficult to read,02-05-2019 14:43
269,2,216,True,Graphic designer,2,lexical,18,sansforgetica,whaiming,non-word,Probably non-word,1.0,,,2996,18,difficult to read,02-05-2019 14:43
270,2,216,True,Graphic designer,2,lexical,19,sansforgetica,gallowned,non-word,Probably non-word,1.0,,,2552,18,difficult to read,02-05-2019 14:43
271,2,216,True,Graphic designer,2,lexical,20,sansforgetica,rivies,non-word,Probably non-word,1.0,,,1834,18,difficult to read,02-05-2019 14:43
272,2,216,True,Graphic designer,2,recognition,1,arial,muscles,word,Sure seen,1.0,seen,muscles,4853,18,difficult to read,02-05-2019 14:43
273,2,216,True,Graphic designer,2,recognition,2,arial,given,word,Sure seen,1.0,seen,given,1498,18,difficult to read,02-05-2019 14:43
274,2,216,True,Graphic designer,2,recognition,3,arial,gromish,non-word,Probably not seen,1.0,not seen,grocks,2537,18,difficult to read,02-05-2019 14:43
275,2,216,True,Graphic designer,2,recognition,4,arial,alrence,non-word,Probably not seen,0.0,seen,alrence,1979,18,difficult to read,02-05-2019 14:43
276,2,216,True,Graphic designer,2,recognition,5,arial,edgins,non-word,Probably not seen,1.0,not seen,eather,1955,18,difficult to read,02-05-2019 14:43
277,2,216,True,Graphic designer,2,recognition,6,arial,gallowned,non-word,Sure seen,1.0,seen,gallowned,2061,18,difficult to read,02-05-2019 14:43
278,2,216,True,Graphic designer,2,recognition,7,arial,empty,word,Probably not seen,1.0,not seen,employment,1929,18,difficult to read,02-05-2019 14:43
279,2,216,True,Graphic designer,2,recognition,8,arial,nodief,non-word,Probably not seen,0.0,seen,nodief,1708,18,difficult to read,02-05-2019 14:43
280,2,216,True,Graphic designer,2,recognition,9,arial,hamething,non-word,Probably not seen,1.0,not seen,hysturably,1545,18,difficult to read,02-05-2019 14:43
281,2,216,True,Graphic designer,2,recognition,10,arial,interesting,word,Probably seen,1.0,seen,interesting,2638,18,difficult to read,02-05-2019 14:43
282,2,216,True,Graphic designer,2,recognition,11,arial,existence,word,Probably seen,0.0,not seen,exist,1672,18,difficult to read,02-05-2019 14:43
283,2,216,True,Graphic designer,2,recognition,12,arial,herself,word,Probably not seen,1.0,not seen,helped,1511,18,difficult to read,02-05-2019 14:43
284,2,216,True,Graphic designer,2,recognition,13,arial,these,word,Probably not seen,1.0,not seen,therefore,1807,18,difficult to read,02-05-2019 14:43
285,2,216,True,Graphic designer,2,recognition,14,arial,convence,non-word,Probably not seen,1.0,not seen,contructors,1912,18,difficult to read,02-05-2019 14:43
286,2,216,True,Graphic designer,2,recognition,15,arial,catuirented,non-word,Sure seen,1.0,seen,catuirented,2547,18,difficult to read,02-05-2019 14:43
287,2,216,True,Graphic designer,2,recognition,16,arial,spent,word,Sure seen,1.0,seen,spent,1617,18,difficult to read,02-05-2019 14:43
288,2,288,False,Graphic designer,1,lexical,1,sansforgetica,neginnery,non-word,Probably non-word,1.0,,,25439,29,difficult to read,02-05-2019 10:46
289,2,288,False,Graphic designer,1,lexical,2,sansforgetica,gently,word,Sure word,1.0,,,7596,29,difficult to read,02-05-2019 10:46
290,2,288,False,Graphic designer,1,lexical,3,sansforgetica,irrection,non-word,Probably non-word,1.0,,,20806,29,difficult to read,02-05-2019 10:46
291,2,288,False,Graphic designer,1,lexical,4,sansforgetica,older,word,Sure word,1.0,,,2066,29,difficult to read,02-05-2019 10:46
292,2,288,False,Graphic designer,1,lexical,5,sansforgetica,angry,word,Sure word,1.0,,,3906,29,difficult to read,02-05-2019 10:46
293,2,288,False,Graphic designer,1,lexical,6,sansforgetica,doctor,word,Sure word,1.0,,,2619,29,difficult to read,02-05-2019 10:46
294,2,288,False,Graphic designer,1,lexical,7,sansforgetica,increaul,non-word,Probably non-word,1.0,,,4911,29,difficult to read,02-05-2019 10:46
295,2,288,False,Graphic designer,1,lexical,8,sansforgetica,forward,word,Sure word,1.0,,,5702,29,difficult to read,02-05-2019 10:46
296,2,288,False,Graphic designer,1,lexical,9,sansforgetica,theatre,word,Sure word,1.0,,,12801,29,difficult to read,02-05-2019 10:46
297,2,288,False,Graphic designer,1,lexical,10,sansforgetica,discomision,non-word,Probably word,0.0,,,5279,29,difficult to read,02-05-2019 10:46
298,2,288,False,Graphic designer,1,lexical,11,sansforgetica,drove,word,Probably word,1.0,,,10266,29,difficult to read,02-05-2019 10:46
299,2,288,False,Graphic designer,1,lexical,12,sansforgetica,orienuation,non-word,Probably non-word,1.0,,,24721,29,difficult to read,02-05-2019 10:46
300,2,288,False,Graphic designer,1,lexical,13,sansforgetica,beach,word,Probably non-word,0.0,,,580,29,difficult to read,02-05-2019 10:46
301,2,288,False,Graphic designer,1,lexical,14,sansforgetica,sategontly,non-word,Probably non-word,1.0,,,8063,29,difficult to read,02-05-2019 10:46
302,2,288,False,Graphic designer,1,lexical,15,sansforgetica,olded,non-word,Probably non-word,1.0,,,9808,29,difficult to read,02-05-2019 10:46
303,2,288,False,Graphic designer,1,lexical,16,sansforgetica,ofter,non-word,Sure non-word,1.0,,,7669,29,difficult to read,02-05-2019 10:46
304,2,288,False,Graphic designer,1,lexical,17,sansforgetica,anybody,word,Sure word,1.0,,,5241,29,difficult to read,02-05-2019 10:46
305,2,288,False,Graphic designer,1,lexical,18,sansforgetica,technology,word,Sure word,1.0,,,4285,29,difficult to read,02-05-2019 10:46
306,2,288,False,Graphic designer,1,lexical,19,sansforgetica,empreases,non-word,Probably word,0.0,,,7840,29,difficult to read,02-05-2019 10:46
307,2,288,False,Graphic designer,1,lexical,20,sansforgetica,producties,non-word,Sure non-word,1.0,,,6144,29,difficult to read,02-05-2019 10:46
308,2,288,False,Graphic designer,1,recognition,1,arial,technology,word,Sure seen,1.0,seen,technology,10414,29,difficult to read,02-05-2019 10:46
309,2,288,False,Graphic designer,1,recognition,2,arial,origived,non-word,Probably not seen,1.0,not seen,orienuation,6455,29,difficult to read,02-05-2019 10:46
310,2,288,False,Graphic designer,1,recognition,3,arial,schieverily,non-word,Sure not seen,1.0,not seen,sategontly,5870,29,difficult to read,02-05-2019 10:46
311,2,288,False,Graphic designer,1,recognition,4,arial,older,word,Sure seen,1.0,seen,older,2300,29,difficult to read,02-05-2019 10:46
312,2,288,False,Graphic designer,1,recognition,5,arial,increaul,non-word,Sure not seen,0.0,seen,increaul,2060,29,difficult to read,02-05-2019 10:46
313,2,288,False,Graphic designer,1,recognition,6,arial,doctor,word,Sure seen,1.0,seen,doctor,1773,29,difficult to read,02-05-2019 10:46
314,2,288,False,Graphic designer,1,recognition,7,arial,itaters,non-word,Sure not seen,1.0,not seen,irrection,4860,29,difficult to read,02-05-2019 10:46
315,2,288,False,Graphic designer,1,recognition,8,arial,beautiful,word,Sure not seen,1.0,not seen,beach,1653,29,difficult to read,02-05-2019 10:46
316,2,288,False,Graphic designer,1,recognition,9,arial,getting,word,Sure not seen,1.0,not seen,gently,1727,29,difficult to read,02-05-2019 10:46
317,2,288,False,Graphic designer,1,recognition,10,arial,occumeted,non-word,Sure not seen,1.0,not seen,ofter,4645,29,difficult to read,02-05-2019 10:46
318,2,288,False,Graphic designer,1,recognition,11,arial,discomision,non-word,Sure seen,1.0,seen,discomision,2524,29,difficult to read,02-05-2019 10:46
319,2,288,False,Graphic designer,1,recognition,12,arial,their,word,Sure not seen,1.0,not seen,theatre,1810,29,difficult to read,02-05-2019 10:46
320,2,288,False,Graphic designer,1,recognition,13,arial,empreases,non-word,Sure seen,1.0,seen,empreases,4349,29,difficult to read,02-05-2019 10:46
321,2,288,False,Graphic designer,1,recognition,14,arial,producties,non-word,Sure seen,1.0,seen,producties,2370,29,difficult to read,02-05-2019 10:46
322,2,288,False,Graphic designer,1,recognition,15,arial,anyone,word,Sure not seen,1.0,not seen,anybody,4554,29,difficult to read,02-05-2019 10:46
323,2,288,False,Graphic designer,1,recognition,16,arial,drove,word,Sure seen,1.0,seen,drove,3784,29,difficult to read,02-05-2019 10:46
324,2,288,False,Graphic designer,2,lexical,1,arial,linangently,non-word,Sure non-word,1.0,,,9029,73,very easy to read,02-05-2019 10:46
325,2,288,False,Graphic designer,2,lexical,2,arial,advanced,word,Sure word,1.0,,,2353,73,very easy to read,02-05-2019 10:46
326,2,288,False,Graphic designer,2,lexical,3,arial,capable,word,Sure word,1.0,,,4952,73,very easy to read,02-05-2019 10:46
327,2,288,False,Graphic designer,2,lexical,4,arial,demands,word,Sure word,1.0,,,12792,73,very easy to read,02-05-2019 10:46
328,2,288,False,Graphic designer,2,lexical,5,arial,since,word,Sure word,1.0,,,2287,73,very easy to read,02-05-2019 10:46
329,2,288,False,Graphic designer,2,lexical,6,arial,outside,word,Sure word,1.0,,,4621,73,very easy to read,02-05-2019 10:46
330,2,288,False,Graphic designer,2,lexical,7,arial,beginness,non-word,Probably non-word,1.0,,,12202,73,very easy to read,02-05-2019 10:46
331,2,288,False,Graphic designer,2,lexical,8,arial,season,word,Sure word,1.0,,,12503,73,very easy to read,02-05-2019 10:46
332,2,288,False,Graphic designer,2,lexical,9,arial,beausance,non-word,Probably non-word,1.0,,,3079,73,very easy to read,02-05-2019 10:46
333,2,288,False,Graphic designer,2,lexical,10,arial,official,word,Sure word,1.0,,,2458,73,very easy to read,02-05-2019 10:46
334,2,288,False,Graphic designer,2,lexical,11,arial,overible,non-word,Probably non-word,1.0,,,17649,73,very easy to read,02-05-2019 10:46
335,2,288,False,Graphic designer,2,lexical,12,arial,studymer,non-word,Sure non-word,1.0,,,3363,73,very easy to read,02-05-2019 10:46
336,2,288,False,Graphic designer,2,lexical,13,arial,conjunteful,non-word,Sure non-word,1.0,,,2930,73,very easy to read,02-05-2019 10:46
337,2,288,False,Graphic designer,2,lexical,14,arial,lisertant,non-word,Probably non-word,1.0,,,16369,73,very easy to read,02-05-2019 10:46
338,2,288,False,Graphic designer,2,lexical,15,arial,individered,non-word,Probably non-word,1.0,,,7500,73,very easy to read,02-05-2019 10:46
339,2,288,False,Graphic designer,2,lexical,16,arial,opened,word,Sure word,1.0,,,2731,73,very easy to read,02-05-2019 10:46
340,2,288,False,Graphic designer,2,lexical,17,arial,celaament,non-word,Sure non-word,1.0,,,5109,73,very easy to read,02-05-2019 10:46
341,2,288,False,Graphic designer,2,lexical,18,arial,prepared,word,Sure word,1.0,,,4373,73,very easy to read,02-05-2019 10:46
342,2,288,False,Graphic designer,2,lexical,19,arial,prefulsion,non-word,Sure non-word,1.0,,,3203,73,very easy to read,02-05-2019 10:46
343,2,288,False,Graphic designer,2,lexical,20,arial,sitting,word,Sure word,1.0,,,1845,73,very easy to read,02-05-2019 10:46
344,2,288,False,Graphic designer,2,recognition,1,sansforgetica,prepared,word,Sure seen,1.0,seen,prepared,9401,73,very easy to read,02-05-2019 10:46
345,2,288,False,Graphic designer,2,recognition,2,sansforgetica,since,word,Sure not seen,0.0,seen,since,8202,73,very easy to read,02-05-2019 10:46
346,2,288,False,Graphic designer,2,recognition,3,sansforgetica,premselves,non-word,Probably not seen,1.0,not seen,prefulsion,8929,73,very easy to read,02-05-2019 10:46
347,2,288,False,Graphic designer,2,recognition,4,sansforgetica,overicted,non-word,Probably not seen,1.0,not seen,overible,5280,73,very easy to read,02-05-2019 10:46
348,2,288,False,Graphic designer,2,recognition,5,sansforgetica,often,word,Sure not seen,1.0,not seen,official,8168,73,very easy to read,02-05-2019 10:46
349,2,288,False,Graphic designer,2,recognition,6,sansforgetica,sitting,word,Sure seen,1.0,seen,sitting,2908,73,very easy to read,02-05-2019 10:46
350,2,288,False,Graphic designer,2,recognition,7,sansforgetica,opened,word,Sure seen,1.0,seen,opened,2902,73,very easy to read,02-05-2019 10:46
351,2,288,False,Graphic designer,2,recognition,8,sansforgetica,studymer,non-word,Sure not seen,0.0,seen,studymer,4259,73,very easy to read,02-05-2019 10:46
352,2,288,False,Graphic designer,2,recognition,9,sansforgetica,democracy,word,Probably not seen,1.0,not seen,demands,4203,73,very easy to read,02-05-2019 10:46
353,2,288,False,Graphic designer,2,recognition,10,sansforgetica,capacity,word,Sure not seen,1.0,not seen,capable,5045,73,very easy to read,02-05-2019 10:46
354,2,288,False,Graphic designer,2,recognition,11,sansforgetica,linally,non-word,Sure not seen,1.0,not seen,linangently,2440,73,very easy to read,02-05-2019 10:46
355,2,288,False,Graphic designer,2,recognition,12,sansforgetica,becend,non-word,Sure not seen,1.0,not seen,beausance,3571,73,very easy to read,02-05-2019 10:46
356,2,288,False,Graphic designer,2,recognition,13,sansforgetica,beginness,non-word,Sure seen,1.0,seen,beginness,2300,73,very easy to read,02-05-2019 10:46
357,2,288,False,Graphic designer,2,recognition,14,sansforgetica,second,word,Sure not seen,1.0,not seen,season,2494,73,very easy to read,02-05-2019 10:46
358,2,288,False,Graphic designer,2,recognition,15,sansforgetica,individered,non-word,Sure seen,1.0,seen,individered,1902,73,very easy to read,02-05-2019 10:46
359,2,288,False,Graphic designer,2,recognition,16,sansforgetica,conjunteful,non-word,Sure seen,1.0,seen,conjunteful,2726,73,very easy to read,02-05-2019 10:46
360,2,360,True,Graphic designer,1,lexical,1,sansforgetica,wrown,non-word,Sure non-word,1.0,,,7437,42,ok,02-05-2019 05:42
361,2,360,True,Graphic designer,1,lexical,2,sansforgetica,forget,word,Sure word,1.0,,,4231,42,ok,02-05-2019 05:42
362,2,360,True,Graphic designer,1,lexical,3,sansforgetica,disgrestors,non-word,Sure word,0.0,,,5975,42,ok,02-05-2019 05:42
363,2,360,True,Graphic designer,1,lexical,4,sansforgetica,accephysive,non-word,Sure word,0.0,,,3607,42,ok,02-05-2019 05:42
364,2,360,True,Graphic designer,1,lexical,5,sansforgetica,marriage,word,Sure word,1.0,,,6086,42,ok,02-05-2019 05:42
365,2,360,True,Graphic designer,1,lexical,6,sansforgetica,sprikelf,non-word,Probably word,0.0,,,7283,42,ok,02-05-2019 05:42
366,2,360,True,Graphic designer,1,lexical,7,sansforgetica,sategontly,non-word,Probably word,0.0,,,4960,42,ok,02-05-2019 05:42
367,2,360,True,Graphic designer,1,lexical,8,sansforgetica,lying,word,Sure word,1.0,,,1607,42,ok,02-05-2019 05:42
368,2,360,True,Graphic designer,1,lexical,9,sansforgetica,roaked,non-word,Probably word,0.0,,,7077,42,ok,02-05-2019 05:42
369,2,360,True,Graphic designer,1,lexical,10,sansforgetica,involved,word,Sure word,1.0,,,2218,42,ok,02-05-2019 05:42
370,2,360,True,Graphic designer,1,lexical,11,sansforgetica,mixting,non-word,Sure word,0.0,,,1797,42,ok,02-05-2019 05:42
371,2,360,True,Graphic designer,1,lexical,12,sansforgetica,occognality,non-word,Sure word,0.0,,,4595,42,ok,02-05-2019 05:42
372,2,360,True,Graphic designer,1,lexical,13,sansforgetica,carrying,word,Sure word,1.0,,,1346,42,ok,02-05-2019 05:42
373,2,360,True,Graphic designer,1,lexical,14,sansforgetica,beyond,word,Sure word,1.0,,,2160,42,ok,02-05-2019 05:42
374,2,360,True,Graphic designer,1,lexical,15,sansforgetica,rules,word,Sure word,1.0,,,1024,42,ok,02-05-2019 05:42
375,2,360,True,Graphic designer,1,lexical,16,sansforgetica,anstage,non-word,Sure word,0.0,,,3409,42,ok,02-05-2019 05:42
376,2,360,True,Graphic designer,1,lexical,17,sansforgetica,gighting,non-word,Probably word,0.0,,,1912,42,ok,02-05-2019 05:42
377,2,360,True,Graphic designer,1,lexical,18,sansforgetica,certainly,word,Sure word,1.0,,,1588,42,ok,02-05-2019 05:42
378,2,360,True,Graphic designer,1,lexical,19,sansforgetica,signs,word,Sure word,1.0,,,1258,42,ok,02-05-2019 05:42
379,2,360,True,Graphic designer,1,lexical,20,sansforgetica,respect,word,Sure word,1.0,,,1091,42,ok,02-05-2019 05:42
380,2,360,True,Graphic designer,1,recognition,1,arial,occognality,non-word,Sure seen,1.0,seen,occognality,4285,42,ok,02-05-2019 05:42
381,2,360,True,Graphic designer,1,recognition,2,arial,signs,word,Sure seen,1.0,seen,signs,1124,42,ok,02-05-2019 05:42
382,2,360,True,Graphic designer,1,recognition,3,arial,chair,word,Sure not seen,1.0,not seen,certainly,3807,42,ok,02-05-2019 05:42
383,2,360,True,Graphic designer,1,recognition,4,arial,anstage,non-word,Sure seen,1.0,seen,anstage,1863,42,ok,02-05-2019 05:42
384,2,360,True,Graphic designer,1,recognition,5,arial,respect,word,Sure seen,1.0,seen,respect,1170,42,ok,02-05-2019 05:42
385,2,360,True,Graphic designer,1,recognition,6,arial,accumplate,non-word,Probably not seen,1.0,not seen,accephysive,3960,42,ok,02-05-2019 05:42
386,2,360,True,Graphic designer,1,recognition,7,arial,disgrestors,non-word,Sure seen,1.0,seen,disgrestors,1700,42,ok,02-05-2019 05:42
387,2,360,True,Graphic designer,1,recognition,8,arial,marriage,word,Sure seen,1.0,seen,marriage,1146,42,ok,02-05-2019 05:42
388,2,360,True,Graphic designer,1,recognition,9,arial,mixtured,non-word,Sure seen,0.0,not seen,mixting,1184,42,ok,02-05-2019 05:42
389,2,360,True,Graphic designer,1,recognition,10,arial,forgotten,word,Sure seen,0.0,not seen,forget,3024,42,ok,02-05-2019 05:42
390,2,360,True,Graphic designer,1,recognition,11,arial,warket,non-word,Probably not seen,1.0,not seen,wrown,1777,42,ok,02-05-2019 05:42
391,2,360,True,Graphic designer,1,recognition,12,arial,gighting,non-word,Sure seen,1.0,seen,gighting,991,42,ok,02-05-2019 05:42
392,2,360,True,Graphic designer,1,recognition,13,arial,cases,word,Sure not seen,1.0,not seen,carrying,1789,42,ok,02-05-2019 05:42
393,2,360,True,Graphic designer,1,recognition,14,arial,schieverily,non-word,Sure not seen,1.0,not seen,sategontly,1428,42,ok,02-05-2019 05:42
394,2,360,True,Graphic designer,1,recognition,15,arial,island,word,Sure not seen,1.0,not seen,involved,1330,42,ok,02-05-2019 05:42
395,2,360,True,Graphic designer,1,recognition,16,arial,beyond,word,Sure seen,1.0,seen,beyond,1338,42,ok,02-05-2019 05:42
396,2,360,True,Graphic designer,2,lexical,1,arial,broblem,non-word,Sure word,0.0,,,5135,64,very easy to read,02-05-2019 05:42
397,2,360,True,Graphic designer,2,lexical,2,arial,struck,word,Sure word,1.0,,,1786,64,very easy to read,02-05-2019 05:42
398,2,360,True,Graphic designer,2,lexical,3,arial,birds,word,Sure word,1.0,,,4781,64,very easy to read,02-05-2019 05:42
399,2,360,True,Graphic designer,2,lexical,4,arial,garance,non-word,Sure word,0.0,,,25016,64,very easy to read,02-05-2019 05:42
400,2,360,True,Graphic designer,2,lexical,5,arial,finth,non-word,Sure non-word,1.0,,,10682,64,very easy to read,02-05-2019 05:42
401,2,360,True,Graphic designer,2,lexical,6,arial,traffic,word,Sure word,1.0,,,1509,64,very easy to read,02-05-2019 05:42
402,2,360,True,Graphic designer,2,lexical,7,arial,effective,word,Sure word,1.0,,,1045,64,very easy to read,02-05-2019 05:42
403,2,360,True,Graphic designer,2,lexical,8,arial,distructs,non-word,Sure word,0.0,,,3354,64,very easy to read,02-05-2019 05:42
404,2,360,True,Graphic designer,2,lexical,9,arial,country,word,Sure word,1.0,,,954,64,very easy to read,02-05-2019 05:42
405,2,360,True,Graphic designer,2,lexical,10,arial,desing,non-word,Sure non-word,1.0,,,2239,64,very easy to read,02-05-2019 05:42
406,2,360,True,Graphic designer,2,lexical,11,arial,scene,word,Sure word,1.0,,,2140,64,very easy to read,02-05-2019 05:42
407,2,360,True,Graphic designer,2,lexical,12,arial,girst,non-word,Sure word,0.0,,,8413,64,very easy to read,02-05-2019 05:42
408,2,360,True,Graphic designer,2,lexical,13,arial,later,word,Sure word,1.0,,,1193,64,very easy to read,02-05-2019 05:42
409,2,360,True,Graphic designer,2,lexical,14,arial,chief,word,Sure word,1.0,,,967,64,very easy to read,02-05-2019 05:42
410,2,360,True,Graphic designer,2,lexical,15,arial,language,word,Sure word,1.0,,,878,64,very easy to read,02-05-2019 05:42
411,2,360,True,Graphic designer,2,lexical,16,arial,natume,non-word,Sure non-word,1.0,,,11331,64,very easy to read,02-05-2019 05:42
412,2,360,True,Graphic designer,2,lexical,17,arial,consiously,non-word,Probably word,0.0,,,12186,64,very easy to read,02-05-2019 05:42
413,2,360,True,Graphic designer,2,lexical,18,arial,fusic,non-word,Sure non-word,1.0,,,2606,64,very easy to read,02-05-2019 05:42
414,2,360,True,Graphic designer,2,lexical,19,arial,againes,non-word,Sure word,0.0,,,2149,64,very easy to read,02-05-2019 05:42
415,2,360,True,Graphic designer,2,lexical,20,arial,further,word,Sure word,1.0,,,1204,64,very easy to read,02-05-2019 05:42
416,2,360,True,Graphic designer,2,recognition,1,sansforgetica,effective,word,Sure seen,1.0,seen,effective,3324,64,very easy to read,02-05-2019 05:42
417,2,360,True,Graphic designer,2,recognition,2,sansforgetica,future,word,Sure seen,0.0,not seen,further,3728,64,very easy to read,02-05-2019 05:42
418,2,360,True,Graphic designer,2,recognition,3,sansforgetica,scheme,word,Sure not seen,1.0,not seen,scene,1864,64,very easy to read,02-05-2019 05:42
419,2,360,True,Graphic designer,2,recognition,4,sansforgetica,fissely,non-word,Sure not seen,1.0,not seen,finth,1552,64,very easy to read,02-05-2019 05:42
420,2,360,True,Graphic designer,2,recognition,5,sansforgetica,chief,word,Sure seen,1.0,seen,chief,1271,64,very easy to read,02-05-2019 05:42
421,2,360,True,Graphic designer,2,recognition,6,sansforgetica,language,word,Sure seen,1.0,seen,language,1226,64,very easy to read,02-05-2019 05:42
422,2,360,True,Graphic designer,2,recognition,7,sansforgetica,birds,word,Sure seen,1.0,seen,birds,1643,64,very easy to read,02-05-2019 05:42
423,2,360,True,Graphic designer,2,recognition,8,sansforgetica,garance,non-word,Sure seen,1.0,seen,garance,1451,64,very easy to read,02-05-2019 05:42
424,2,360,True,Graphic designer,2,recognition,9,sansforgetica,glayed,non-word,Sure not seen,1.0,not seen,girst,3060,64,very easy to read,02-05-2019 05:42
425,2,360,True,Graphic designer,2,recognition,10,sansforgetica,couple,word,Sure not seen,1.0,not seen,country,1668,64,very easy to read,02-05-2019 05:42
426,2,360,True,Graphic designer,2,recognition,11,sansforgetica,fusic,non-word,Probably not seen,0.0,seen,fusic,18211968,64,very easy to read,02-05-2019 05:42
427,2,360,True,Graphic designer,2,recognition,12,sansforgetica,againes,non-word,Sure seen,1.0,seen,againes,2000,64,very easy to read,02-05-2019 05:42
428,2,360,True,Graphic designer,2,recognition,13,sansforgetica,desing,non-word,Sure seen,1.0,seen,desing,1868,64,very easy to read,02-05-2019 05:42
429,2,360,True,Graphic designer,2,recognition,14,sansforgetica,latter,word,Probably not seen,1.0,not seen,later,1969,64,very easy to read,02-05-2019 05:42
430,2,360,True,Graphic designer,2,recognition,15,sansforgetica,contem,non-word,Probably not seen,1.0,not seen,consiously,1328,64,very easy to read,02-05-2019 05:42
431,2,360,True,Graphic designer,2,recognition,16,sansforgetica,diverented,non-word,Sure seen,0.0,not seen,distructs,1924,64,very easy to read,02-05-2019 05:42
432,2,432,False,Non-designer,1,lexical,1,sansforgetica,intersive,non-word,Sure word,0.0,,,9261,50,ok,01-05-2019 17:21
433,2,432,False,Non-designer,1,lexical,2,sansforgetica,independent,word,Sure word,1.0,,,3355,50,ok,01-05-2019 17:21
434,2,432,False,Non-designer,1,lexical,3,sansforgetica,peoply,non-word,Probably word,0.0,,,3313,50,ok,01-05-2019 17:21
435,2,432,False,Non-designer,1,lexical,4,sansforgetica,strike,word,Sure word,1.0,,,2267,50,ok,01-05-2019 17:21
436,2,432,False,Non-designer,1,lexical,5,sansforgetica,apportuning,non-word,Sure word,0.0,,,3036,50,ok,01-05-2019 17:21
437,2,432,False,Non-designer,1,lexical,6,sansforgetica,books,word,Sure word,1.0,,,1715,50,ok,01-05-2019 17:21
438,2,432,False,Non-designer,1,lexical,7,sansforgetica,incression,non-word,Probably word,0.0,,,4159,50,ok,01-05-2019 17:21
439,2,432,False,Non-designer,1,lexical,8,sansforgetica,religious,word,Sure word,1.0,,,2333,50,ok,01-05-2019 17:21
440,2,432,False,Non-designer,1,lexical,9,sansforgetica,became,word,Sure word,1.0,,,2562,50,ok,01-05-2019 17:21
441,2,432,False,Non-designer,1,lexical,10,sansforgetica,resources,word,Sure word,1.0,,,2180,50,ok,01-05-2019 17:21
442,2,432,False,Non-designer,1,lexical,11,sansforgetica,succerdly,non-word,Sure word,0.0,,,1684,50,ok,01-05-2019 17:21
443,2,432,False,Non-designer,1,lexical,12,sansforgetica,teaching,word,Sure word,1.0,,,2986,50,ok,01-05-2019 17:21
444,2,432,False,Non-designer,1,lexical,13,sansforgetica,taked,non-word,Sure word,0.0,,,2015,50,ok,01-05-2019 17:21
445,2,432,False,Non-designer,1,lexical,14,sansforgetica,parmined,non-word,Probably word,0.0,,,3229,50,ok,01-05-2019 17:21
446,2,432,False,Non-designer,1,lexical,15,sansforgetica,althdren,non-word,Probably non-word,1.0,,,6094,50,ok,01-05-2019 17:21
447,2,432,False,Non-designer,1,lexical,16,sansforgetica,stopped,word,Sure word,1.0,,,1946,50,ok,01-05-2019 17:21
448,2,432,False,Non-designer,1,lexical,17,sansforgetica,months,word,Sure word,1.0,,,1785,50,ok,01-05-2019 17:21
449,2,432,False,Non-designer,1,lexical,18,sansforgetica,pariods,non-word,Probably word,0.0,,,3895,50,ok,01-05-2019 17:21
450,2,432,False,Non-designer,1,lexical,19,sansforgetica,immediative,non-word,Sure word,0.0,,,3823,50,ok,01-05-2019 17:21
451,2,432,False,Non-designer,1,lexical,20,sansforgetica,medical,word,Sure word,1.0,,,1678,50,ok,01-05-2019 17:21
452,2,432,False,Non-designer,1,recognition,1,arial,successity,non-word,Probably seen,0.0,not seen,succerdly,5725,50,ok,01-05-2019 17:21
453,2,432,False,Non-designer,1,recognition,2,arial,teaching,word,Sure seen,1.0,seen,teaching,4999,50,ok,01-05-2019 17:21
454,2,432,False,Non-designer,1,recognition,3,arial,increved,non-word,Probably seen,0.0,not seen,incression,2590,50,ok,01-05-2019 17:21
455,2,432,False,Non-designer,1,recognition,4,arial,immediative,non-word,Sure seen,1.0,seen,immediative,1561,50,ok,01-05-2019 17:21
456,2,432,False,Non-designer,1,recognition,5,arial,apportuning,non-word,Sure seen,1.0,seen,apportuning,2160,50,ok,01-05-2019 17:21
457,2,432,False,Non-designer,1,recognition,6,arial,althount,non-word,Probably seen,0.0,not seen,althdren,1736,50,ok,01-05-2019 17:21
458,2,432,False,Non-designer,1,recognition,7,arial,stopped,word,Sure seen,1.0,seen,stopped,2094,50,ok,01-05-2019 17:21
459,2,432,False,Non-designer,1,recognition,8,arial,strong,word,Sure not seen,1.0,not seen,strike,3861,50,ok,01-05-2019 17:21
460,2,432,False,Non-designer,1,recognition,9,arial,bottle,word,Probably not seen,1.0,not seen,books,2772,50,ok,01-05-2019 17:21
461,2,432,False,Non-designer,1,recognition,10,arial,pariods,non-word,Sure seen,1.0,seen,pariods,1803,50,ok,01-05-2019 17:21
462,2,432,False,Non-designer,1,recognition,11,arial,medical,word,Sure seen,1.0,seen,medical,1498,50,ok,01-05-2019 17:21
463,2,432,False,Non-designer,1,recognition,12,arial,because,word,Sure seen,0.0,not seen,became,1598,50,ok,01-05-2019 17:21
464,2,432,False,Non-designer,1,recognition,13,arial,individual,word,Sure seen,0.0,not seen,independent,1352,50,ok,01-05-2019 17:21
465,2,432,False,Non-designer,1,recognition,14,arial,taked,non-word,Sure seen,1.0,seen,taked,1225,50,ok,01-05-2019 17:21
466,2,432,False,Non-designer,1,recognition,15,arial,months,word,Sure seen,1.0,seen,months,1369,50,ok,01-05-2019 17:21
467,2,432,False,Non-designer,1,recognition,16,arial,perdly,non-word,Probably not seen,1.0,not seen,peoply,2051,50,ok,01-05-2019 17:21
468,2,432,False,Non-designer,2,lexical,1,arial,secretary,word,Probably word,1.0,,,6945,50,easy to read,01-05-2019 17:21
469,2,432,False,Non-designer,2,lexical,2,arial,appearance,word,Sure word,1.0,,,1747,50,easy to read,01-05-2019 17:21
470,2,432,False,Non-designer,2,lexical,3,arial,morking,non-word,Sure word,0.0,,,1743,50,easy to read,01-05-2019 17:21
471,2,432,False,Non-designer,2,lexical,4,arial,weises,non-word,Probably word,0.0,,,1505,50,easy to read,01-05-2019 17:21
472,2,432,False,Non-designer,2,lexical,5,arial,trambling,non-word,Probably word,0.0,,,1854,50,easy to read,01-05-2019 17:21
473,2,432,False,Non-designer,2,lexical,6,arial,estitimes,non-word,Sure word,0.0,,,1291,50,easy to read,01-05-2019 17:21
474,2,432,False,Non-designer,2,lexical,7,arial,inducial,non-word,Probably word,0.0,,,1899,50,easy to read,01-05-2019 17:21
475,2,432,False,Non-designer,2,lexical,8,arial,speech,word,Sure word,1.0,,,1376,50,easy to read,01-05-2019 17:21
476,2,432,False,Non-designer,2,lexical,9,arial,gazark,non-word,Probably word,0.0,,,1562,50,easy to read,01-05-2019 17:21
477,2,432,False,Non-designer,2,lexical,10,arial,bodies,word,Sure word,1.0,,,1281,50,easy to read,01-05-2019 17:21
478,2,432,False,Non-designer,2,lexical,11,arial,mastruntion,non-word,Sure word,0.0,,,1256,50,easy to read,01-05-2019 17:21
479,2,432,False,Non-designer,2,lexical,12,arial,scholopment,non-word,Probably word,0.0,,,2300,50,easy to read,01-05-2019 17:21
480,2,432,False,Non-designer,2,lexical,13,arial,south,word,Sure word,1.0,,,1627,50,easy to read,01-05-2019 17:21
481,2,432,False,Non-designer,2,lexical,14,arial,dropped,word,Sure word,1.0,,,1171,50,easy to read,01-05-2019 17:21
482,2,432,False,Non-designer,2,lexical,15,arial,nortinge,non-word,Sure word,0.0,,,1978,50,easy to read,01-05-2019 17:21
483,2,432,False,Non-designer,2,lexical,16,arial,status,word,Sure word,1.0,,,1194,50,easy to read,01-05-2019 17:21
484,2,432,False,Non-designer,2,lexical,17,arial,having,word,Sure word,1.0,,,1147,50,easy to read,01-05-2019 17:21
485,2,432,False,Non-designer,2,lexical,18,arial,compared,word,Sure word,1.0,,,1536,50,easy to read,01-05-2019 17:21
486,2,432,False,Non-designer,2,lexical,19,arial,leceived,non-word,Probably non-word,1.0,,,1998,50,easy to read,01-05-2019 17:21
487,2,432,False,Non-designer,2,lexical,20,arial,worry,word,Sure word,1.0,,,1314,50,easy to read,01-05-2019 17:21
488,2,432,False,Non-designer,2,recognition,1,sansforgetica,stayed,word,Sure seen,0.0,not seen,status,2429,50,easy to read,01-05-2019 17:21
489,2,432,False,Non-designer,2,recognition,2,sansforgetica,compared,word,Sure seen,1.0,seen,compared,1346,50,easy to read,01-05-2019 17:21
490,2,432,False,Non-designer,2,recognition,3,sansforgetica,morricit,non-word,Probably seen,0.0,not seen,morking,2356,50,easy to read,01-05-2019 17:21
491,2,432,False,Non-designer,2,recognition,4,sansforgetica,speech,word,Sure seen,1.0,seen,speech,1185,50,easy to read,01-05-2019 17:21
492,2,432,False,Non-designer,2,recognition,5,sansforgetica,tramines,non-word,Probably not seen,1.0,not seen,trambling,1729,50,easy to read,01-05-2019 17:21
493,2,432,False,Non-designer,2,recognition,6,sansforgetica,infantics,non-word,Probably not seen,1.0,not seen,inducial,2469,50,easy to read,01-05-2019 17:21
494,2,432,False,Non-designer,2,recognition,7,sansforgetica,gazark,non-word,Probably not seen,0.0,seen,gazark,3582,50,easy to read,01-05-2019 17:21
495,2,432,False,Non-designer,2,recognition,8,sansforgetica,dropped,word,Sure seen,1.0,seen,dropped,1305,50,easy to read,01-05-2019 17:21
496,2,432,False,Non-designer,2,recognition,9,sansforgetica,weises,non-word,Sure seen,1.0,seen,weises,2208,50,easy to read,01-05-2019 17:21
497,2,432,False,Non-designer,2,recognition,10,sansforgetica,heads,word,Sure seen,0.0,not seen,having,1368,50,easy to read,01-05-2019 17:21
498,2,432,False,Non-designer,2,recognition,11,sansforgetica,lecieve,non-word,Sure seen,0.0,not seen,leceived,1319,50,easy to read,01-05-2019 17:21
499,2,432,False,Non-designer,2,recognition,12,sansforgetica,worry,word,Sure seen,1.0,seen,worry,1235,50,easy to read,01-05-2019 17:21
500,2,432,False,Non-designer,2,recognition,13,sansforgetica,approach,word,Sure seen,0.0,not seen,appearance,1267,50,easy to read,01-05-2019 17:21
501,2,432,False,Non-designer,2,recognition,14,sansforgetica,nortinge,non-word,Sure seen,1.0,seen,nortinge,1428,50,easy to read,01-05-2019 17:21
502,2,432,False,Non-designer,2,recognition,15,sansforgetica,scholopment,non-word,Probably seen,1.0,seen,scholopment,2861,50,easy to read,01-05-2019 17:21
503,2,432,False,Non-designer,2,recognition,16,sansforgetica,section,word,Sure seen,0.0,not seen,secretary,1545,50,easy to read,01-05-2019 17:21
504,2,504,True,Other designer,1,lexical,1,sansforgetica,surface,word,Sure word,1.0,,,5205,85,very easy to read,01-05-2019 16:40
505,2,504,True,Other designer,1,lexical,2,sansforgetica,congressary,non-word,Probably word,0.0,,,18640,85,very easy to read,01-05-2019 16:40
506,2,504,True,Other designer,1,lexical,3,sansforgetica,arranged,word,Sure word,1.0,,,3687,85,very easy to read,01-05-2019 16:40
507,2,504,True,Other designer,1,lexical,4,sansforgetica,voiled,non-word,Sure word,0.0,,,4169,85,very easy to read,01-05-2019 16:40
508,2,504,True,Other designer,1,lexical,5,sansforgetica,struck,word,Sure word,1.0,,,1756,85,very easy to read,01-05-2019 16:40
509,2,504,True,Other designer,1,lexical,6,sansforgetica,rechnolles,non-word,Probably word,0.0,,,3856,85,very easy to read,01-05-2019 16:40
510,2,504,True,Other designer,1,lexical,7,sansforgetica,forest,word,Sure word,1.0,,,1492,85,very easy to read,01-05-2019 16:40
511,2,504,True,Other designer,1,lexical,8,sansforgetica,notice,word,Sure word,1.0,,,1584,85,very easy to read,01-05-2019 16:40
512,2,504,True,Other designer,1,lexical,9,sansforgetica,green,word,Sure word,1.0,,,1037,85,very easy to read,01-05-2019 16:40
513,2,504,True,Other designer,1,lexical,10,sansforgetica,satched,non-word,Probably word,0.0,,,3619,85,very easy to read,01-05-2019 16:40
514,2,504,True,Other designer,1,lexical,11,sansforgetica,undeep,non-word,Probably word,0.0,,,2996,85,very easy to read,01-05-2019 16:40
515,2,504,True,Other designer,1,lexical,12,sansforgetica,travel,word,Sure word,1.0,,,971,85,very easy to read,01-05-2019 16:40
516,2,504,True,Other designer,1,lexical,13,sansforgetica,peace,word,Sure word,1.0,,,960,85,very easy to read,01-05-2019 16:40
517,2,504,True,Other designer,1,lexical,14,sansforgetica,preaped,non-word,Probably non-word,1.0,,,4893,85,very easy to read,01-05-2019 16:40
518,2,504,True,Other designer,1,lexical,15,sansforgetica,weight,word,Sure word,1.0,,,2125,85,very easy to read,01-05-2019 16:40
519,2,504,True,Other designer,1,lexical,16,sansforgetica,velerion,non-word,Probably word,0.0,,,1509,85,very easy to read,01-05-2019 16:40
520,2,504,True,Other designer,1,lexical,17,sansforgetica,looks,word,Sure word,1.0,,,1356,85,very easy to read,01-05-2019 16:40
521,2,504,True,Other designer,1,lexical,18,sansforgetica,agaim,non-word,Sure non-word,1.0,,,5916,85,very easy to read,01-05-2019 16:40
522,2,504,True,Other designer,1,lexical,19,sansforgetica,favies,non-word,Probably word,0.0,,,5216,85,very easy to read,01-05-2019 16:40
523,2,504,True,Other designer,1,lexical,20,sansforgetica,thurning,non-word,Probably non-word,1.0,,,5464,85,very easy to read,01-05-2019 16:40
524,2,504,True,Other designer,1,recognition,1,arial,thurning,non-word,Sure seen,1.0,seen,thurning,7292,85,very easy to read,01-05-2019 16:40
525,2,504,True,Other designer,1,recognition,2,arial,weight,word,Sure seen,1.0,seen,weight,948,85,very easy to read,01-05-2019 16:40
526,2,504,True,Other designer,1,recognition,3,arial,voins,non-word,Probably seen,0.0,not seen,voiled,1708,85,very easy to read,01-05-2019 16:40
527,2,504,True,Other designer,1,recognition,4,arial,forest,word,Sure seen,1.0,seen,forest,936,85,very easy to read,01-05-2019 16:40
528,2,504,True,Other designer,1,recognition,5,arial,underation,non-word,Probably not seen,1.0,not seen,undeep,3317,85,very easy to read,01-05-2019 16:40
529,2,504,True,Other designer,1,recognition,6,arial,people,word,Probably not seen,1.0,not seen,peace,5318,85,very easy to read,01-05-2019 16:40
530,2,504,True,Other designer,1,recognition,7,arial,venerweared,non-word,Probably not seen,1.0,not seen,velerion,2457,85,very easy to read,01-05-2019 16:40
531,2,504,True,Other designer,1,recognition,8,arial,loved,word,Probably not seen,1.0,not seen,looks,2279,85,very easy to read,01-05-2019 16:40
532,2,504,True,Other designer,1,recognition,9,arial,structure,word,Probably not seen,1.0,not seen,struck,6834,85,very easy to read,01-05-2019 16:40
533,2,504,True,Other designer,1,recognition,10,arial,ground,word,Probably not seen,1.0,not seen,green,1882,85,very easy to read,01-05-2019 16:40
534,2,504,True,Other designer,1,recognition,11,arial,travel,word,Sure seen,1.0,seen,travel,1296,85,very easy to read,01-05-2019 16:40
535,2,504,True,Other designer,1,recognition,12,arial,favies,non-word,Sure seen,1.0,seen,favies,1316,85,very easy to read,01-05-2019 16:40
536,2,504,True,Other designer,1,recognition,13,arial,sategontly,non-word,Probably not seen,1.0,not seen,satched,2252,85,very easy to read,01-05-2019 16:40
537,2,504,True,Other designer,1,recognition,14,arial,surface,word,Sure seen,1.0,seen,surface,1317,85,very easy to read,01-05-2019 16:40
538,2,504,True,Other designer,1,recognition,15,arial,congressary,non-word,Sure seen,1.0,seen,congressary,1404,85,very easy to read,01-05-2019 16:40
539,2,504,True,Other designer,1,recognition,16,arial,preaped,non-word,Probably seen,1.0,seen,preaped,7332,85,very easy to read,01-05-2019 16:40
540,2,504,True,Other designer,2,lexical,1,arial,financial,word,Sure word,1.0,,,13169,75,very easy to read,01-05-2019 16:40
541,2,504,True,Other designer,2,lexical,2,arial,norectly,non-word,Probably word,0.0,,,1533,75,very easy to read,01-05-2019 16:40
542,2,504,True,Other designer,2,lexical,3,arial,chief,word,Sure word,1.0,,,1571,75,very easy to read,01-05-2019 16:40
543,2,504,True,Other designer,2,lexical,4,arial,fashing,non-word,Probably non-word,1.0,,,2688,75,very easy to read,01-05-2019 16:40
544,2,504,True,Other designer,2,lexical,5,arial,listening,word,Sure word,1.0,,,1584,75,very easy to read,01-05-2019 16:40
545,2,504,True,Other designer,2,lexical,6,arial,leauty,non-word,Probably non-word,1.0,,,1549,75,very easy to read,01-05-2019 16:40
546,2,504,True,Other designer,2,lexical,7,arial,silver,word,Sure word,1.0,,,1193,75,very easy to read,01-05-2019 16:40
547,2,504,True,Other designer,2,lexical,8,arial,perman,non-word,Probably word,0.0,,,2907,75,very easy to read,01-05-2019 16:40
548,2,504,True,Other designer,2,lexical,9,arial,cammuning,non-word,Probably non-word,1.0,,,1688,75,very easy to read,01-05-2019 16:40
549,2,504,True,Other designer,2,lexical,10,arial,senal,non-word,Sure non-word,1.0,,,4609,75,very easy to read,01-05-2019 16:40
550,2,504,True,Other designer,2,lexical,11,arial,contact,word,Sure word,1.0,,,1675,75,very easy to read,01-05-2019 16:40
551,2,504,True,Other designer,2,lexical,12,arial,object,word,Sure word,1.0,,,1208,75,very easy to read,01-05-2019 16:40
552,2,504,True,Other designer,2,lexical,13,arial,somewing,non-word,Probably word,0.0,,,3969,75,very easy to read,01-05-2019 16:40
553,2,504,True,Other designer,2,lexical,14,arial,discussion,word,Sure word,1.0,,,1435,75,very easy to read,01-05-2019 16:40
554,2,504,True,Other designer,2,lexical,15,arial,anywhere,word,Sure word,1.0,,,2857,75,very easy to read,01-05-2019 16:40
555,2,504,True,Other designer,2,lexical,16,arial,clearly,word,Sure word,1.0,,,860,75,very easy to read,01-05-2019 16:40
556,2,504,True,Other designer,2,lexical,17,arial,growth,word,Sure word,1.0,,,735,75,very easy to read,01-05-2019 16:40
557,2,504,True,Other designer,2,lexical,18,arial,metween,non-word,Sure non-word,1.0,,,3325,75,very easy to read,01-05-2019 16:40
558,2,504,True,Other designer,2,lexical,19,arial,thouggle,non-word,Probably non-word,1.0,,,1991,75,very easy to read,01-05-2019 16:40
559,2,504,True,Other designer,2,lexical,20,arial,cenger,non-word,Sure non-word,1.0,,,1856,75,very easy to read,01-05-2019 16:40
560,2,504,True,Other designer,2,recognition,1,sansforgetica,norectly,non-word,Probably seen,1.0,seen,norectly,5995,75,very easy to read,01-05-2019 16:40
561,2,504,True,Other designer,2,recognition,2,sansforgetica,little,word,Probably not seen,1.0,not seen,listening,6332,75,very easy to read,01-05-2019 16:40
562,2,504,True,Other designer,2,recognition,3,sansforgetica,leceived,non-word,Sure not seen,1.0,not seen,leauty,1960,75,very easy to read,01-05-2019 16:40
563,2,504,True,Other designer,2,recognition,4,sansforgetica,clearly,word,Sure seen,1.0,seen,clearly,1803,75,very easy to read,01-05-2019 16:40
564,2,504,True,Other designer,2,recognition,5,sansforgetica,cenism,non-word,Probably not seen,1.0,not seen,cenger,2056,75,very easy to read,01-05-2019 16:40
565,2,504,True,Other designer,2,recognition,6,sansforgetica,growth,word,Sure seen,1.0,seen,growth,1084,75,very easy to read,01-05-2019 16:40
566,2,504,True,Other designer,2,recognition,7,sansforgetica,similar,word,Sure seen,0.0,not seen,silver,1464,75,very easy to read,01-05-2019 16:40
567,2,504,True,Other designer,2,recognition,8,sansforgetica,somewing,non-word,Sure seen,1.0,seen,somewing,1387,75,very easy to read,01-05-2019 16:40
568,2,504,True,Other designer,2,recognition,9,sansforgetica,disease,word,Probably seen,0.0,not seen,discussion,2136,75,very easy to read,01-05-2019 16:40
569,2,504,True,Other designer,2,recognition,10,sansforgetica,faterb,non-word,Probably not seen,1.0,not seen,fashing,1509,75,very easy to read,01-05-2019 16:40
570,2,504,True,Other designer,2,recognition,11,sansforgetica,anywhere,word,Sure seen,1.0,seen,anywhere,1827,75,very easy to read,01-05-2019 16:40
571,2,504,True,Other designer,2,recognition,12,sansforgetica,obvious,word,Sure seen,0.0,not seen,object,2616,75,very easy to read,01-05-2019 16:40
572,2,504,True,Other designer,2,recognition,13,sansforgetica,metween,non-word,Sure seen,1.0,seen,metween,3324,75,very easy to read,01-05-2019 16:40
573,2,504,True,Other designer,2,recognition,14,sansforgetica,financial,word,Sure seen,1.0,seen,financial,1029,75,very easy to read,01-05-2019 16:40
574,2,504,True,Other designer,2,recognition,15,sansforgetica,cammuning,non-word,Probably not seen,0.0,seen,cammuning,1739,75,very easy to read,01-05-2019 16:40
575,2,504,True,Other designer,2,recognition,16,sansforgetica,thount,non-word,Probably not seen,1.0,not seen,thouggle,1357,75,very easy to read,01-05-2019 16:40
576,2,576,True,Non-designer,1,lexical,1,arial,engistriate,non-word,Sure non-word,1.0,,,2384,70,very easy to read,01-05-2019 10:49
577,2,576,True,Non-designer,1,lexical,2,arial,three,word,Sure word,1.0,,,1980,70,very easy to read,01-05-2019 10:49
578,2,576,True,Non-designer,1,lexical,3,arial,acadence,non-word,Probably non-word,1.0,,,3524,70,very easy to read,01-05-2019 10:49
579,2,576,True,Non-designer,1,lexical,4,arial,hovelently,non-word,Probably non-word,1.0,,,3630,70,very easy to read,01-05-2019 10:49
580,2,576,True,Non-designer,1,lexical,5,arial,hontever,non-word,Sure non-word,1.0,,,1746,70,very easy to read,01-05-2019 10:49
581,2,576,True,Non-designer,1,lexical,6,arial,ground,word,Sure word,1.0,,,1815,70,very easy to read,01-05-2019 10:49
582,2,576,True,Non-designer,1,lexical,7,arial,loote,non-word,Sure non-word,1.0,,,1988,70,very easy to read,01-05-2019 10:49
583,2,576,True,Non-designer,1,lexical,8,arial,otherwise,word,Sure word,1.0,,,1892,70,very easy to read,01-05-2019 10:49
584,2,576,True,Non-designer,1,lexical,9,arial,apponstedly,non-word,Sure non-word,1.0,,,3362,70,very easy to read,01-05-2019 10:49
585,2,576,True,Non-designer,1,lexical,10,arial,methods,word,Sure word,1.0,,,1663,70,very easy to read,01-05-2019 10:49
586,2,576,True,Non-designer,1,lexical,11,arial,fashion,word,Sure word,1.0,,,1834,70,very easy to read,01-05-2019 10:49
587,2,576,True,Non-designer,1,lexical,12,arial,material,word,Sure word,1.0,,,1148,70,very easy to read,01-05-2019 10:49
588,2,576,True,Non-designer,1,lexical,13,arial,appeal,word,Sure word,1.0,,,1290,70,very easy to read,01-05-2019 10:49
589,2,576,True,Non-designer,1,lexical,14,arial,gatisient,non-word,Sure non-word,1.0,,,2719,70,very easy to read,01-05-2019 10:49
590,2,576,True,Non-designer,1,lexical,15,arial,leasumated,non-word,Probably non-word,1.0,,,3451,70,very easy to read,01-05-2019 10:49
591,2,576,True,Non-designer,1,lexical,16,arial,commalists,non-word,Probably non-word,1.0,,,3049,70,very easy to read,01-05-2019 10:49
592,2,576,True,Non-designer,1,lexical,17,arial,teaching,word,Sure word,1.0,,,1559,70,very easy to read,01-05-2019 10:49
593,2,576,True,Non-designer,1,lexical,18,arial,vegitorken,non-word,Sure non-word,1.0,,,2281,70,very easy to read,01-05-2019 10:49
594,2,576,True,Non-designer,1,lexical,19,arial,parliament,word,Sure word,1.0,,,1896,70,very easy to read,01-05-2019 10:49
595,2,576,True,Non-designer,1,lexical,20,arial,never,word,Sure word,1.0,,,1402,70,very easy to read,01-05-2019 10:49
596,2,576,True,Non-designer,1,recognition,1,sansforgetica,through,word,Probably seen,0.0,not seen,three,5967,70,very easy to read,01-05-2019 10:49
597,2,576,True,Non-designer,1,recognition,2,sansforgetica,appeal,word,Sure seen,1.0,seen,appeal,1771,70,very easy to read,01-05-2019 10:49
598,2,576,True,Non-designer,1,recognition,3,sansforgetica,particular,word,Probably not seen,1.0,not seen,parliament,4484,70,very easy to read,01-05-2019 10:49
599,2,576,True,Non-designer,1,recognition,4,sansforgetica,ground,word,Sure seen,1.0,seen,ground,1415,70,very easy to read,01-05-2019 10:49
600,2,576,True,Non-designer,1,recognition,5,sansforgetica,lourced,non-word,Sure seen,0.0,not seen,loote,2986,70,very easy to read,01-05-2019 10:49
601,2,576,True,Non-designer,1,recognition,6,sansforgetica,matter,word,Sure seen,0.0,not seen,material,2008,70,very easy to read,01-05-2019 10:49
602,2,576,True,Non-designer,1,recognition,7,sansforgetica,vegitorken,non-word,Sure seen,1.0,seen,vegitorken,1794,70,very easy to read,01-05-2019 10:49
603,2,576,True,Non-designer,1,recognition,8,sansforgetica,humberical,non-word,Sure not seen,1.0,not seen,hovelently,3235,70,very easy to read,01-05-2019 10:49
604,2,576,True,Non-designer,1,recognition,9,sansforgetica,hontever,non-word,Sure not seen,0.0,seen,hontever,2397,70,very easy to read,01-05-2019 10:49
605,2,576,True,Non-designer,1,recognition,10,sansforgetica,father,word,Sure not seen,1.0,not seen,fashion,1970,70,very easy to read,01-05-2019 10:49
606,2,576,True,Non-designer,1,recognition,11,sansforgetica,never,word,Sure seen,1.0,seen,never,1329,70,very easy to read,01-05-2019 10:49
607,2,576,True,Non-designer,1,recognition,12,sansforgetica,leasumated,non-word,Sure seen,1.0,seen,leasumated,3288,70,very easy to read,01-05-2019 10:49
608,2,576,True,Non-designer,1,recognition,13,sansforgetica,engistriate,non-word,Sure seen,1.0,seen,engistriate,2332,70,very easy to read,01-05-2019 10:49
609,2,576,True,Non-designer,1,recognition,14,sansforgetica,commendous,non-word,Probably not seen,1.0,not seen,commalists,3067,70,very easy to read,01-05-2019 10:49
610,2,576,True,Non-designer,1,recognition,15,sansforgetica,otherwise,word,Sure seen,1.0,seen,otherwise,3665,70,very easy to read,01-05-2019 10:49
611,2,576,True,Non-designer,1,recognition,16,sansforgetica,gatted,non-word,Probably not seen,1.0,not seen,gatisient,2612,70,very easy to read,01-05-2019 10:49
612,2,576,True,Non-designer,2,lexical,1,sansforgetica,miregiated,non-word,Probably non-word,1.0,,,3495,50,difficult to read,01-05-2019 10:49
613,2,576,True,Non-designer,2,lexical,2,sansforgetica,fruit,word,Sure word,1.0,,,2198,50,difficult to read,01-05-2019 10:49
614,2,576,True,Non-designer,2,lexical,3,sansforgetica,contem,non-word,Probably non-word,1.0,,,2270,50,difficult to read,01-05-2019 10:49
615,2,576,True,Non-designer,2,lexical,4,sansforgetica,inderected,non-word,Sure word,0.0,,,7253,50,difficult to read,01-05-2019 10:49
616,2,576,True,Non-designer,2,lexical,5,sansforgetica,reported,word,Sure word,1.0,,,1268,50,difficult to read,01-05-2019 10:49
617,2,576,True,Non-designer,2,lexical,6,sansforgetica,gighting,non-word,Probably non-word,1.0,,,2883,50,difficult to read,01-05-2019 10:49
618,2,576,True,Non-designer,2,lexical,7,sansforgetica,specket,non-word,Probably non-word,1.0,,,2705,50,difficult to read,01-05-2019 10:49
619,2,576,True,Non-designer,2,lexical,8,sansforgetica,instead,word,Sure word,1.0,,,1503,50,difficult to read,01-05-2019 10:49
620,2,576,True,Non-designer,2,lexical,9,sansforgetica,devulaing,non-word,Probably non-word,1.0,,,4092,50,difficult to read,01-05-2019 10:49
621,2,576,True,Non-designer,2,lexical,10,sansforgetica,council,word,Sure word,1.0,,,1754,50,difficult to read,01-05-2019 10:49
622,2,576,True,Non-designer,2,lexical,11,sansforgetica,despite,word,Sure word,1.0,,,1357,50,difficult to read,01-05-2019 10:49
623,2,576,True,Non-designer,2,lexical,12,sansforgetica,drojects,non-word,Probably non-word,1.0,,,4959,50,difficult to read,01-05-2019 10:49
624,2,576,True,Non-designer,2,lexical,13,sansforgetica,particular,word,Sure word,1.0,,,1702,50,difficult to read,01-05-2019 10:49
625,2,576,True,Non-designer,2,lexical,14,sansforgetica,after,word,Sure word,1.0,,,1269,50,difficult to read,01-05-2019 10:49
626,2,576,True,Non-designer,2,lexical,15,sansforgetica,nodief,non-word,Sure non-word,1.0,,,3105,50,difficult to read,01-05-2019 10:49
627,2,576,True,Non-designer,2,lexical,16,sansforgetica,famous,word,Sure word,1.0,,,1882,50,difficult to read,01-05-2019 10:49
628,2,576,True,Non-designer,2,lexical,17,sansforgetica,vegimasion,non-word,Probably non-word,1.0,,,3202,50,difficult to read,01-05-2019 10:49
629,2,576,True,Non-designer,2,lexical,18,sansforgetica,uncregately,non-word,Sure non-word,1.0,,,4171,50,difficult to read,01-05-2019 10:49
630,2,576,True,Non-designer,2,lexical,19,sansforgetica,something,word,Sure word,1.0,,,1875,50,difficult to read,01-05-2019 10:49
631,2,576,True,Non-designer,2,lexical,20,sansforgetica,struggle,word,Sure word,1.0,,,1941,50,difficult to read,01-05-2019 10:49
632,2,576,True,Non-designer,2,recognition,1,arial,dictrised,non-word,Probably not seen,1.0,not seen,devulaing,4332,50,difficult to read,01-05-2019 10:49
633,2,576,True,Non-designer,2,recognition,2,arial,miregiated,non-word,Sure seen,1.0,seen,miregiated,2519,50,difficult to read,01-05-2019 10:49
634,2,576,True,Non-designer,2,recognition,3,arial,durprology,non-word,Probably not seen,1.0,not seen,drojects,2993,50,difficult to read,01-05-2019 10:49
635,2,576,True,Non-designer,2,recognition,4,arial,famous,word,Sure seen,1.0,seen,famous,1576,50,difficult to read,01-05-2019 10:49
636,2,576,True,Non-designer,2,recognition,5,arial,fully,word,Probably not seen,1.0,not seen,fruit,2176,50,difficult to read,01-05-2019 10:49
637,2,576,True,Non-designer,2,recognition,6,arial,uncregately,non-word,Sure seen,1.0,seen,uncregately,2744,50,difficult to read,01-05-2019 10:49
638,2,576,True,Non-designer,2,recognition,7,arial,vegimasion,non-word,Sure seen,1.0,seen,vegimasion,1605,50,difficult to read,01-05-2019 10:49
639,2,576,True,Non-designer,2,recognition,8,arial,despite,word,Sure seen,1.0,seen,despite,1163,50,difficult to read,01-05-2019 10:49
640,2,576,True,Non-designer,2,recognition,9,arial,girayed,non-word,Sure seen,0.0,not seen,gighting,2077,50,difficult to read,01-05-2019 10:49
641,2,576,True,Non-designer,2,recognition,10,arial,sometimes,word,Probably not seen,1.0,not seen,something,2226,50,difficult to read,01-05-2019 10:49
642,2,576,True,Non-designer,2,recognition,11,arial,council,word,Sure seen,1.0,seen,council,1351,50,difficult to read,01-05-2019 10:49
643,2,576,True,Non-designer,2,recognition,12,arial,reported,word,Sure seen,1.0,seen,reported,1050,50,difficult to read,01-05-2019 10:49
644,2,576,True,Non-designer,2,recognition,13,arial,parties,word,Probably not seen,1.0,not seen,particular,2040,50,difficult to read,01-05-2019 10:49
645,2,576,True,Non-designer,2,recognition,14,arial,nodief,non-word,Sure seen,1.0,seen,nodief,1530,50,difficult to read,01-05-2019 10:49
646,2,576,True,Non-designer,2,recognition,15,arial,spectiation,non-word,Probably not seen,1.0,not seen,specket,1957,50,difficult to read,01-05-2019 10:49
647,2,576,True,Non-designer,2,recognition,16,arial,studies,word,Sure not seen,1.0,not seen,struggle,3429,50,difficult to read,01-05-2019 10:49
648,2,648,True,Graphic designer,1,lexical,1,arial,totally,word,Sure word,1.0,,,1283,75,very easy to read,01-05-2019 10:45
649,2,648,True,Graphic designer,1,lexical,2,arial,received,word,Sure word,1.0,,,1047,75,very easy to read,01-05-2019 10:45
650,2,648,True,Graphic designer,1,lexical,3,arial,former,word,Sure word,1.0,,,1023,75,very easy to read,01-05-2019 10:45
651,2,648,True,Graphic designer,1,lexical,4,arial,second,word,Sure word,1.0,,,890,75,very easy to read,01-05-2019 10:45
652,2,648,True,Graphic designer,1,lexical,5,arial,considenon,non-word,Probably non-word,1.0,,,3037,75,very easy to read,01-05-2019 10:45
653,2,648,True,Graphic designer,1,lexical,6,arial,insumn,non-word,Sure non-word,1.0,,,1564,75,very easy to read,01-05-2019 10:45
654,2,648,True,Graphic designer,1,lexical,7,arial,designed,word,Sure word,1.0,,,1385,75,very easy to read,01-05-2019 10:45
655,2,648,True,Graphic designer,1,lexical,8,arial,strashism,non-word,Probably non-word,1.0,,,3848,75,very easy to read,01-05-2019 10:45
656,2,648,True,Graphic designer,1,lexical,9,arial,disappelmen,non-word,Sure non-word,1.0,,,2372,75,very easy to read,01-05-2019 10:45
657,2,648,True,Graphic designer,1,lexical,10,arial,regular,word,Sure word,1.0,,,1451,75,very easy to read,01-05-2019 10:45
658,2,648,True,Graphic designer,1,lexical,11,arial,indertunity,non-word,Sure non-word,1.0,,,6255,75,very easy to read,01-05-2019 10:45
659,2,648,True,Graphic designer,1,lexical,12,arial,aggreciled,non-word,Probably word,0.0,,,3433,75,very easy to read,01-05-2019 10:45
660,2,648,True,Graphic designer,1,lexical,13,arial,remembered,word,Sure word,1.0,,,1068,75,very easy to read,01-05-2019 10:45
661,2,648,True,Graphic designer,1,lexical,14,arial,compagency,non-word,Probably word,0.0,,,2103,75,very easy to read,01-05-2019 10:45
662,2,648,True,Graphic designer,1,lexical,15,arial,bought,word,Sure word,1.0,,,1361,75,very easy to read,01-05-2019 10:45
663,2,648,True,Graphic designer,1,lexical,16,arial,beautiful,word,Sure word,1.0,,,799,75,very easy to read,01-05-2019 10:45
664,2,648,True,Graphic designer,1,lexical,17,arial,autteuvrity,non-word,Sure non-word,1.0,,,3656,75,very easy to read,01-05-2019 10:45
665,2,648,True,Graphic designer,1,lexical,18,arial,costs,word,Sure word,1.0,,,1283,75,very easy to read,01-05-2019 10:45
666,2,648,True,Graphic designer,1,lexical,19,arial,genernoon,non-word,Probably non-word,1.0,,,2632,75,very easy to read,01-05-2019 10:45
667,2,648,True,Graphic designer,1,lexical,20,arial,disarruping,non-word,Sure non-word,1.0,,,2003,75,very easy to read,01-05-2019 10:45
668,2,648,True,Graphic designer,1,recognition,1,sansforgetica,could,word,Sure not seen,1.0,not seen,costs,6177,75,very easy to read,01-05-2019 10:45
669,2,648,True,Graphic designer,1,recognition,2,sansforgetica,genernoon,non-word,Sure seen,1.0,seen,genernoon,4702,75,very easy to read,01-05-2019 10:45
670,2,648,True,Graphic designer,1,recognition,3,sansforgetica,considere,non-word,Sure not seen,1.0,not seen,considenon,4792,75,very easy to read,01-05-2019 10:45
671,2,648,True,Graphic designer,1,recognition,4,sansforgetica,bound,word,Probably not seen,1.0,not seen,bought,2285,75,very easy to read,01-05-2019 10:45
672,2,648,True,Graphic designer,1,recognition,5,sansforgetica,recent,word,Sure not seen,1.0,not seen,received,1958,75,very easy to read,01-05-2019 10:45
673,2,648,True,Graphic designer,1,recognition,6,sansforgetica,auttlefites,non-word,Sure not seen,1.0,not seen,autteuvrity,2496,75,very easy to read,01-05-2019 10:45
674,2,648,True,Graphic designer,1,recognition,7,sansforgetica,indesphant,non-word,Sure not seen,1.0,not seen,indertunity,1946,75,very easy to read,01-05-2019 10:45
675,2,648,True,Graphic designer,1,recognition,8,sansforgetica,remembered,word,Probably seen,1.0,seen,remembered,2971,75,very easy to read,01-05-2019 10:45
676,2,648,True,Graphic designer,1,recognition,9,sansforgetica,beautiful,word,Sure seen,1.0,seen,beautiful,1136,75,very easy to read,01-05-2019 10:45
677,2,648,True,Graphic designer,1,recognition,10,sansforgetica,designed,word,Sure seen,1.0,seen,designed,1080,75,very easy to read,01-05-2019 10:45
678,2,648,True,Graphic designer,1,recognition,11,sansforgetica,disappelmen,non-word,Sure seen,1.0,seen,disappelmen,1767,75,very easy to read,01-05-2019 10:45
679,2,648,True,Graphic designer,1,recognition,12,sansforgetica,touch,word,Sure not seen,1.0,not seen,totally,1709,75,very easy to read,01-05-2019 10:45
680,2,648,True,Graphic designer,1,recognition,13,sansforgetica,strashism,non-word,Sure seen,1.0,seen,strashism,1643,75,very easy to read,01-05-2019 10:45
681,2,648,True,Graphic designer,1,recognition,14,sansforgetica,insumn,non-word,Sure not seen,0.0,seen,insumn,3194,75,very easy to read,01-05-2019 10:45
682,2,648,True,Graphic designer,1,recognition,15,sansforgetica,former,word,Probably seen,1.0,seen,former,1778,75,very easy to read,01-05-2019 10:45
683,2,648,True,Graphic designer,1,recognition,16,sansforgetica,airalow,non-word,Probably not seen,1.0,not seen,aggreciled,3398,75,very easy to read,01-05-2019 10:45
684,2,648,True,Graphic designer,2,lexical,1,sansforgetica,intersive,non-word,Sure word,0.0,,,4354,65,difficult to read,01-05-2019 10:45
685,2,648,True,Graphic designer,2,lexical,2,sansforgetica,traditional,word,Sure word,1.0,,,1002,65,difficult to read,01-05-2019 10:45
686,2,648,True,Graphic designer,2,lexical,3,sansforgetica,company,word,Sure word,1.0,,,1211,65,difficult to read,01-05-2019 10:45
687,2,648,True,Graphic designer,2,lexical,4,sansforgetica,irrection,non-word,Sure word,0.0,,,3153,65,difficult to read,01-05-2019 10:45
688,2,648,True,Graphic designer,2,lexical,5,sansforgetica,couple,word,Sure word,1.0,,,834,65,difficult to read,01-05-2019 10:45
689,2,648,True,Graphic designer,2,lexical,6,sansforgetica,moved,word,Sure word,1.0,,,932,65,difficult to read,01-05-2019 10:45
690,2,648,True,Graphic designer,2,lexical,7,sansforgetica,rateries,non-word,Sure word,0.0,,,2218,65,difficult to read,01-05-2019 10:45
691,2,648,True,Graphic designer,2,lexical,8,sansforgetica,lunds,non-word,Probably non-word,1.0,,,1754,65,difficult to read,01-05-2019 10:45
692,2,648,True,Graphic designer,2,lexical,9,sansforgetica,pericer,non-word,Probably non-word,1.0,,,3736,65,difficult to read,01-05-2019 10:45
693,2,648,True,Graphic designer,2,lexical,10,sansforgetica,nobit,non-word,Probably non-word,1.0,,,3340,65,difficult to read,01-05-2019 10:45
694,2,648,True,Graphic designer,2,lexical,11,sansforgetica,intertution,non-word,Sure word,0.0,,,5727,65,difficult to read,01-05-2019 10:45
695,2,648,True,Graphic designer,2,lexical,12,sansforgetica,granspors,non-word,Probably non-word,1.0,,,3003,65,difficult to read,01-05-2019 10:45
696,2,648,True,Graphic designer,2,lexical,13,sansforgetica,between,word,Sure word,1.0,,,1519,65,difficult to read,01-05-2019 10:45
697,2,648,True,Graphic designer,2,lexical,14,sansforgetica,brease,non-word,Probably non-word,1.0,,,5659,65,difficult to read,01-05-2019 10:45
698,2,648,True,Graphic designer,2,lexical,15,sansforgetica,cities,word,Sure word,1.0,,,2476,65,difficult to read,01-05-2019 10:45
699,2,648,True,Graphic designer,2,lexical,16,sansforgetica,already,word,Sure word,1.0,,,832,65,difficult to read,01-05-2019 10:45
700,2,648,True,Graphic designer,2,lexical,17,sansforgetica,dangerous,word,Sure word,1.0,,,832,65,difficult to read,01-05-2019 10:45
701,2,648,True,Graphic designer,2,lexical,18,sansforgetica,plain,word,Sure word,1.0,,,844,65,difficult to read,01-05-2019 10:45
702,2,648,True,Graphic designer,2,lexical,19,sansforgetica,themselves,word,Sure word,1.0,,,854,65,difficult to read,01-05-2019 10:45
703,2,648,True,Graphic designer,2,lexical,20,sansforgetica,wetween,non-word,Sure non-word,1.0,,,1812,65,difficult to read,01-05-2019 10:45
704,2,648,True,Graphic designer,2,recognition,1,arial,traditional,word,Probably seen,1.0,seen,traditional,4263,65,difficult to read,01-05-2019 10:45
705,2,648,True,Graphic designer,2,recognition,2,arial,irrection,non-word,Sure seen,1.0,seen,irrection,2149,65,difficult to read,01-05-2019 10:45
706,2,648,True,Graphic designer,2,recognition,3,arial,grattered,non-word,Sure not seen,1.0,not seen,granspors,1406,65,difficult to read,01-05-2019 10:45
707,2,648,True,Graphic designer,2,recognition,4,arial,darkness,word,Sure not seen,1.0,not seen,dangerous,1575,65,difficult to read,01-05-2019 10:45
708,2,648,True,Graphic designer,2,recognition,5,arial,civil,word,Sure not seen,1.0,not seen,cities,1374,65,difficult to read,01-05-2019 10:45
709,2,648,True,Graphic designer,2,recognition,6,arial,wetween,non-word,Sure seen,1.0,seen,wetween,1855,65,difficult to read,01-05-2019 10:45
710,2,648,True,Graphic designer,2,recognition,7,arial,brevided,non-word,Sure not seen,1.0,not seen,brease,1305,65,difficult to read,01-05-2019 10:45
711,2,648,True,Graphic designer,2,recognition,8,arial,couple,word,Sure seen,1.0,seen,couple,1496,65,difficult to read,01-05-2019 10:45
712,2,648,True,Graphic designer,2,recognition,9,arial,movements,word,Sure not seen,1.0,not seen,moved,1125,65,difficult to read,01-05-2019 10:45
713,2,648,True,Graphic designer,2,recognition,10,arial,beyond,word,Sure seen,0.0,not seen,between,1282,65,difficult to read,01-05-2019 10:45
714,2,648,True,Graphic designer,2,recognition,11,arial,themselves,word,Sure seen,1.0,seen,themselves,1159,65,difficult to read,01-05-2019 10:45
715,2,648,True,Graphic designer,2,recognition,12,arial,perietail,non-word,Sure not seen,1.0,not seen,pericer,1666,65,difficult to read,01-05-2019 10:45
716,2,648,True,Graphic designer,2,recognition,13,arial,already,word,Probably not seen,0.0,seen,already,1799,65,difficult to read,01-05-2019 10:45
717,2,648,True,Graphic designer,2,recognition,14,arial,intervating,non-word,Probably not seen,1.0,not seen,intertution,2970,65,difficult to read,01-05-2019 10:45
718,2,648,True,Graphic designer,2,recognition,15,arial,intersive,non-word,Probably seen,1.0,seen,intersive,2776,65,difficult to read,01-05-2019 10:45
719,2,648,True,Graphic designer,2,recognition,16,arial,nobit,non-word,Sure seen,1.0,seen,nobit,1218,65,difficult to read,01-05-2019 10:45
720,2,720,False,Other designer,1,lexical,1,sansforgetica,clese,non-word,Sure non-word,1.0,,,7361,19,difficult to read,01-05-2019 10:25
721,2,720,False,Other designer,1,lexical,2,sansforgetica,daughter,word,Sure word,1.0,,,3765,19,difficult to read,01-05-2019 10:25
722,2,720,False,Other designer,1,lexical,3,sansforgetica,gromish,non-word,Probably non-word,1.0,,,4376,19,difficult to read,01-05-2019 10:25
723,2,720,False,Other designer,1,lexical,4,sansforgetica,association,word,Sure word,1.0,,,4748,19,difficult to read,01-05-2019 10:25
724,2,720,False,Other designer,1,lexical,5,sansforgetica,itself,word,Sure word,1.0,,,3816,19,difficult to read,01-05-2019 10:25
725,2,720,False,Other designer,1,lexical,6,sansforgetica,notes,word,Sure word,1.0,,,2946,19,difficult to read,01-05-2019 10:25
726,2,720,False,Other designer,1,lexical,7,sansforgetica,complex,word,Sure word,1.0,,,2368,19,difficult to read,01-05-2019 10:25
727,2,720,False,Other designer,1,lexical,8,sansforgetica,catiquition,non-word,Probably non-word,1.0,,,5719,19,difficult to read,01-05-2019 10:25
728,2,720,False,Other designer,1,lexical,9,sansforgetica,built,word,Sure word,1.0,,,3141,19,difficult to read,01-05-2019 10:25
729,2,720,False,Other designer,1,lexical,10,sansforgetica,midonious,non-word,Probably word,0.0,,,10638,19,difficult to read,01-05-2019 10:25
730,2,720,False,Other designer,1,lexical,11,sansforgetica,poverty,word,Sure word,1.0,,,2131,19,difficult to read,01-05-2019 10:25
731,2,720,False,Other designer,1,lexical,12,sansforgetica,grened,non-word,Sure word,0.0,,,3696,19,difficult to read,01-05-2019 10:25
732,2,720,False,Other designer,1,lexical,13,sansforgetica,learn,word,Sure word,1.0,,,1453,19,difficult to read,01-05-2019 10:25
733,2,720,False,Other designer,1,lexical,14,sansforgetica,artividual,non-word,Probably word,0.0,,,6712,19,difficult to read,01-05-2019 10:25
734,2,720,False,Other designer,1,lexical,15,sansforgetica,refectuning,non-word,Probably non-word,1.0,,,5138,19,difficult to read,01-05-2019 10:25
735,2,720,False,Other designer,1,lexical,16,sansforgetica,occasion,word,Sure word,1.0,,,4422,19,difficult to read,01-05-2019 10:25
736,2,720,False,Other designer,1,lexical,17,sansforgetica,discialness,non-word,Probably non-word,1.0,,,5518,19,difficult to read,01-05-2019 10:25
737,2,720,False,Other designer,1,lexical,18,sansforgetica,asserworly,non-word,Probably non-word,1.0,,,5180,19,difficult to read,01-05-2019 10:25
738,2,720,False,Other designer,1,lexical,19,sansforgetica,visher,non-word,Probably non-word,1.0,,,6892,19,difficult to read,01-05-2019 10:25
739,2,720,False,Other designer,1,lexical,20,sansforgetica,marriage,word,Sure word,1.0,,,3544,19,difficult to read,01-05-2019 10:25
740,2,720,False,Other designer,1,recognition,1,arial,nothing,word,Probably not seen,1.0,not seen,notes,8056,19,difficult to read,01-05-2019 10:25
741,2,720,False,Other designer,1,recognition,2,arial,association,word,Sure seen,1.0,seen,association,2238,19,difficult to read,01-05-2019 10:25
742,2,720,False,Other designer,1,recognition,3,arial,computer,word,Sure not seen,1.0,not seen,complex,4234,19,difficult to read,01-05-2019 10:25
