,Study ID,Participant ID,Fluent,Designer,Test ID,Test type,Trial ID,Font,Sample,Category,Response,Correct,Seen,Foil,Response time,JoM,JoL,Date
0,1.0,0.0,True,Letter designer,1,lexical,1,arial,covered,word,Sure word,1.0,,,4834,40,very easy to read,12-04-2019 06:47
1,1.0,0.0,True,Letter designer,1,lexical,2,arial,countenth,non-word,Sure non-word,1.0,,,6249,40,very easy to read,12-04-2019 06:47
2,1.0,0.0,True,Letter designer,1,lexical,3,arial,revernment,non-word,Probably non-word,1.0,,,3216,40,very easy to read,12-04-2019 06:47
3,1.0,0.0,True,Letter designer,1,lexical,4,arial,thick,word,Sure word,1.0,,,1583,40,very easy to read,12-04-2019 06:47
4,1.0,0.0,True,Letter designer,1,lexical,5,arial,masuld,non-word,Sure non-word,1.0,,,2058,40,very easy to read,12-04-2019 06:47
5,1.0,0.0,True,Letter designer,1,lexical,6,arial,welfare,word,Probably word,1.0,,,3155,40,very easy to read,12-04-2019 06:47
6,1.0,0.0,True,Letter designer,1,lexical,7,arial,carry,word,Sure word,1.0,,,1835,40,very easy to read,12-04-2019 06:47
7,1.0,0.0,True,Letter designer,1,lexical,8,arial,compared,word,Sure word,1.0,,,1131,40,very easy to read,12-04-2019 06:47
8,1.0,0.0,True,Letter designer,1,lexical,9,arial,larms,non-word,Probably non-word,1.0,,,2282,40,very easy to read,12-04-2019 06:47
9,1.0,0.0,True,Letter designer,1,lexical,10,arial,attitude,word,Sure word,1.0,,,1871,40,very easy to read,12-04-2019 06:47
10,1.0,0.0,True,Letter designer,1,lexical,11,arial,cerving,non-word,Probably non-word,1.0,,,5066,40,very easy to read,12-04-2019 06:47
11,1.0,0.0,True,Letter designer,1,lexical,12,arial,ordiever,non-word,Probably non-word,1.0,,,4419,40,very easy to read,12-04-2019 06:47
12,1.0,0.0,True,Letter designer,1,lexical,13,arial,adolormated,non-word,Probably non-word,1.0,,,3707,40,very easy to read,12-04-2019 06:47
13,1.0,0.0,True,Letter designer,1,lexical,14,arial,clean,word,Sure word,1.0,,,1492,40,very easy to read,12-04-2019 06:47
14,1.0,0.0,True,Letter designer,1,lexical,15,arial,papid,non-word,Probably non-word,1.0,,,2843,40,very easy to read,12-04-2019 06:47
15,1.0,0.0,True,Letter designer,1,lexical,16,arial,sudden,word,Sure word,1.0,,,1699,40,very easy to read,12-04-2019 06:47
16,1.0,0.0,True,Letter designer,1,lexical,17,arial,woung,non-word,Probably non-word,1.0,,,2879,40,very easy to read,12-04-2019 06:47
17,1.0,0.0,True,Letter designer,1,lexical,18,arial,mandon,non-word,Probably non-word,1.0,,,4070,40,very easy to read,12-04-2019 06:47
18,1.0,0.0,True,Letter designer,1,lexical,19,arial,thinking,word,Sure word,1.0,,,1360,40,very easy to read,12-04-2019 06:47
19,1.0,0.0,True,Letter designer,1,lexical,20,arial,forget,word,Sure word,1.0,,,1291,40,very easy to read,12-04-2019 06:47
20,1.0,0.0,True,Letter designer,1,recognition,1,arial,forget,word,Probably seen,1.0,seen,forget,11074,40,very easy to read,12-04-2019 06:47
21,1.0,0.0,True,Letter designer,1,recognition,2,arial,counticks,non-word,Sure not seen,1.0,not seen,countenth,2219,40,very easy to read,12-04-2019 06:47
22,1.0,0.0,True,Letter designer,1,recognition,3,arial,sudden,word,Sure seen,1.0,seen,sudden,1491,40,very easy to read,12-04-2019 06:47
23,1.0,0.0,True,Letter designer,1,recognition,4,arial,carry,word,Sure seen,1.0,seen,carry,1190,40,very easy to read,12-04-2019 06:47
24,1.0,0.0,True,Letter designer,1,recognition,5,arial,advanth,non-word,Probably seen,0.0,not seen,adolormated,2731,40,very easy to read,12-04-2019 06:47
25,1.0,0.0,True,Letter designer,1,recognition,6,arial,clear,word,Probably not seen,1.0,not seen,clean,4382,40,very easy to read,12-04-2019 06:47
26,1.0,0.0,True,Letter designer,1,recognition,7,arial,orgument,non-word,Sure not seen,1.0,not seen,ordiever,1631,40,very easy to read,12-04-2019 06:47
27,1.0,0.0,True,Letter designer,1,recognition,8,arial,larms,non-word,Sure seen,1.0,seen,larms,1810,40,very easy to read,12-04-2019 06:47
28,1.0,0.0,True,Letter designer,1,recognition,9,arial,revernment,non-word,Sure seen,1.0,seen,revernment,1630,40,very easy to read,12-04-2019 06:47
29,1.0,0.0,True,Letter designer,1,recognition,10,arial,western,word,Sure not seen,1.0,not seen,welfare,1786,40,very easy to read,12-04-2019 06:47
30,1.0,0.0,True,Letter designer,1,recognition,11,arial,compared,word,Probably seen,1.0,seen,compared,2337,40,very easy to read,12-04-2019 06:47
31,1.0,0.0,True,Letter designer,1,recognition,12,arial,thing,word,Sure seen,0.0,not seen,thick,1739,40,very easy to read,12-04-2019 06:47
32,1.0,0.0,True,Letter designer,1,recognition,13,arial,mandon,non-word,Sure seen,1.0,seen,mandon,1278,40,very easy to read,12-04-2019 06:47
33,1.0,0.0,True,Letter designer,1,recognition,14,arial,third,word,Sure not seen,1.0,not seen,thinking,1869,40,very easy to read,12-04-2019 06:47
34,1.0,0.0,True,Letter designer,1,recognition,15,arial,wourt,non-word,Probably not seen,1.0,not seen,woung,2660,40,very easy to read,12-04-2019 06:47
35,1.0,0.0,True,Letter designer,1,recognition,16,arial,masuld,non-word,Probably not seen,0.0,seen,masuld,2143,40,very easy to read,12-04-2019 06:47
36,1.0,0.0,True,Letter designer,2,lexical,1,sansforgetica,argued,word,Probably word,1.0,,,10411,34,difficult to read,12-04-2019 06:47
37,1.0,0.0,True,Letter designer,2,lexical,2,sansforgetica,worth,word,Sure word,1.0,,,1720,34,difficult to read,12-04-2019 06:47
38,1.0,0.0,True,Letter designer,2,lexical,3,sansforgetica,augary,non-word,Probably non-word,1.0,,,5148,34,difficult to read,12-04-2019 06:47
39,1.0,0.0,True,Letter designer,2,lexical,4,sansforgetica,opperal,non-word,Probably non-word,1.0,,,1841,34,difficult to read,12-04-2019 06:47
40,1.0,0.0,True,Letter designer,2,lexical,5,sansforgetica,holding,word,Sure word,1.0,,,3066,34,difficult to read,12-04-2019 06:47
41,1.0,0.0,True,Letter designer,2,lexical,6,sansforgetica,wassia,non-word,Sure non-word,1.0,,,3787,34,difficult to read,12-04-2019 06:47
42,1.0,0.0,True,Letter designer,2,lexical,7,sansforgetica,altional,non-word,Probably non-word,1.0,,,2156,34,difficult to read,12-04-2019 06:47
43,1.0,0.0,True,Letter designer,2,lexical,8,sansforgetica,shannishes,non-word,Probably non-word,1.0,,,2995,34,difficult to read,12-04-2019 06:47
44,1.0,0.0,True,Letter designer,2,lexical,9,sansforgetica,morning,word,Sure word,1.0,,,1689,34,difficult to read,12-04-2019 06:47
45,1.0,0.0,True,Letter designer,2,lexical,10,sansforgetica,sorry,word,Sure word,1.0,,,1373,34,difficult to read,12-04-2019 06:47
46,1.0,0.0,True,Letter designer,2,lexical,11,sansforgetica,motter,non-word,Probably non-word,1.0,,,5173,34,difficult to read,12-04-2019 06:47
47,1.0,0.0,True,Letter designer,2,lexical,12,sansforgetica,necressor,non-word,Probably non-word,1.0,,,2211,34,difficult to read,12-04-2019 06:47
48,1.0,0.0,True,Letter designer,2,lexical,13,sansforgetica,human,word,Sure word,1.0,,,1467,34,difficult to read,12-04-2019 06:47
49,1.0,0.0,True,Letter designer,2,lexical,14,sansforgetica,communist,word,Sure word,1.0,,,1342,34,difficult to read,12-04-2019 06:47
50,1.0,0.0,True,Letter designer,2,lexical,15,sansforgetica,grened,non-word,Probably non-word,1.0,,,3139,34,difficult to read,12-04-2019 06:47
51,1.0,0.0,True,Letter designer,2,lexical,16,sansforgetica,guatiammer,non-word,Probably non-word,1.0,,,3272,34,difficult to read,12-04-2019 06:47
52,1.0,0.0,True,Letter designer,2,lexical,17,sansforgetica,character,word,Sure word,1.0,,,1333,34,difficult to read,12-04-2019 06:47
53,1.0,0.0,True,Letter designer,2,lexical,18,sansforgetica,mealth,non-word,Probably non-word,1.0,,,2797,34,difficult to read,12-04-2019 06:47
54,1.0,0.0,True,Letter designer,2,lexical,19,sansforgetica,along,word,Sure word,1.0,,,1349,34,difficult to read,12-04-2019 06:47
55,1.0,0.0,True,Letter designer,2,lexical,20,sansforgetica,start,word,Sure word,1.0,,,1076,34,difficult to read,12-04-2019 06:47
56,1.0,0.0,True,Letter designer,2,recognition,1,sansforgetica,worth,word,Sure seen,1.0,seen,worth,2031,34,difficult to read,12-04-2019 06:47
57,1.0,0.0,True,Letter designer,2,recognition,2,sansforgetica,meanspheted,non-word,Probably not seen,1.0,not seen,mealth,2353,34,difficult to read,12-04-2019 06:47
58,1.0,0.0,True,Letter designer,2,recognition,3,sansforgetica,argument,word,Probably not seen,1.0,not seen,argued,2091,34,difficult to read,12-04-2019 06:47
59,1.0,0.0,True,Letter designer,2,recognition,4,sansforgetica,authorantal,non-word,Sure not seen,1.0,not seen,augary,2361,34,difficult to read,12-04-2019 06:47
60,1.0,0.0,True,Letter designer,2,recognition,5,sansforgetica,oppers,non-word,Sure not seen,1.0,not seen,opperal,1779,34,difficult to read,12-04-2019 06:47
61,1.0,0.0,True,Letter designer,2,recognition,6,sansforgetica,morning,word,Probably seen,1.0,seen,morning,2110,34,difficult to read,12-04-2019 06:47
62,1.0,0.0,True,Letter designer,2,recognition,7,sansforgetica,altional,non-word,Sure seen,1.0,seen,altional,2030,34,difficult to read,12-04-2019 06:47
63,1.0,0.0,True,Letter designer,2,recognition,8,sansforgetica,shannishes,non-word,Probably seen,1.0,seen,shannishes,2017,34,difficult to read,12-04-2019 06:47
64,1.0,0.0,True,Letter designer,2,recognition,9,sansforgetica,statement,word,Sure not seen,1.0,not seen,start,2210,34,difficult to read,12-04-2019 06:47
65,1.0,0.0,True,Letter designer,2,recognition,10,sansforgetica,holding,word,Probably not seen,0.0,seen,holding,1588,34,difficult to read,12-04-2019 06:47
66,1.0,0.0,True,Letter designer,2,recognition,11,sansforgetica,guatiammer,non-word,Probably seen,1.0,seen,guatiammer,3867,34,difficult to read,12-04-2019 06:47
67,1.0,0.0,True,Letter designer,2,recognition,12,sansforgetica,character,word,Sure seen,1.0,seen,character,1471,34,difficult to read,12-04-2019 06:47
68,1.0,0.0,True,Letter designer,2,recognition,13,sansforgetica,already,word,Probably not seen,1.0,not seen,along,2236,34,difficult to read,12-04-2019 06:47
69,1.0,0.0,True,Letter designer,2,recognition,14,sansforgetica,wassia,non-word,Sure seen,1.0,seen,wassia,1648,34,difficult to read,12-04-2019 06:47
70,1.0,0.0,True,Letter designer,2,recognition,15,sansforgetica,sounds,word,Probably not seen,1.0,not seen,sorry,4660,34,difficult to read,12-04-2019 06:47
71,1.0,0.0,True,Letter designer,2,recognition,16,sansforgetica,neeld,non-word,Sure not seen,1.0,not seen,necressor,1948,34,difficult to read,12-04-2019 06:47
72,1.0,72.0,True,Non-designer,1,lexical,1,sansforgetica,guilty,word,Sure word,1.0,,,2587,38,ok,12-04-2019 05:45
73,1.0,72.0,True,Non-designer,1,lexical,2,sansforgetica,battle,word,Sure word,1.0,,,2127,38,ok,12-04-2019 05:45
74,1.0,72.0,True,Non-designer,1,lexical,3,sansforgetica,performance,word,Sure word,1.0,,,1373,38,ok,12-04-2019 05:45
75,1.0,72.0,True,Non-designer,1,lexical,4,sansforgetica,opperal,non-word,Probably non-word,1.0,,,3450,38,ok,12-04-2019 05:45
76,1.0,72.0,True,Non-designer,1,lexical,5,sansforgetica,envolase,non-word,Sure non-word,1.0,,,3376,38,ok,12-04-2019 05:45
77,1.0,72.0,True,Non-designer,1,lexical,6,sansforgetica,names,word,Sure word,1.0,,,1761,38,ok,12-04-2019 05:45
78,1.0,72.0,True,Non-designer,1,lexical,7,sansforgetica,mering,non-word,Sure non-word,1.0,,,2597,38,ok,12-04-2019 05:45
79,1.0,72.0,True,Non-designer,1,lexical,8,sansforgetica,riddly,non-word,Sure word,0.0,,,2563,38,ok,12-04-2019 05:45
80,1.0,72.0,True,Non-designer,1,lexical,9,sansforgetica,temarrences,non-word,Sure non-word,1.0,,,5848,38,ok,12-04-2019 05:45
81,1.0,72.0,True,Non-designer,1,lexical,10,sansforgetica,romoting,non-word,Sure non-word,1.0,,,3330,38,ok,12-04-2019 05:45
82,1.0,72.0,True,Non-designer,1,lexical,11,sansforgetica,chares,non-word,Probably non-word,1.0,,,2980,38,ok,12-04-2019 05:45
83,1.0,72.0,True,Non-designer,1,lexical,12,sansforgetica,season,word,Sure word,1.0,,,2143,38,ok,12-04-2019 05:45
84,1.0,72.0,True,Non-designer,1,lexical,13,sansforgetica,claim,word,Sure word,1.0,,,1807,38,ok,12-04-2019 05:45
85,1.0,72.0,True,Non-designer,1,lexical,14,sansforgetica,rutogement,non-word,Probably non-word,1.0,,,2647,38,ok,12-04-2019 05:45
86,1.0,72.0,True,Non-designer,1,lexical,15,sansforgetica,walls,word,Sure word,1.0,,,1812,38,ok,12-04-2019 05:45
87,1.0,72.0,True,Non-designer,1,lexical,16,sansforgetica,tealissed,non-word,Probably non-word,1.0,,,2084,38,ok,12-04-2019 05:45
88,1.0,72.0,True,Non-designer,1,lexical,17,sansforgetica,calling,word,Sure word,1.0,,,1386,38,ok,12-04-2019 05:45
89,1.0,72.0,True,Non-designer,1,lexical,18,sansforgetica,minute,word,Sure word,1.0,,,1729,38,ok,12-04-2019 05:45
90,1.0,72.0,True,Non-designer,1,lexical,19,sansforgetica,forwared,non-word,Sure word,0.0,,,1088,38,ok,12-04-2019 05:45
91,1.0,72.0,True,Non-designer,1,lexical,20,sansforgetica,politics,word,Sure word,1.0,,,1387,38,ok,12-04-2019 05:45
92,1.0,72.0,True,Non-designer,1,recognition,1,sansforgetica,teliquely,non-word,Sure not seen,1.0,not seen,tealissed,3969,38,ok,12-04-2019 05:45
93,1.0,72.0,True,Non-designer,1,recognition,2,sansforgetica,tempriation,non-word,Probably not seen,1.0,not seen,temarrences,2896,38,ok,12-04-2019 05:45
94,1.0,72.0,True,Non-designer,1,recognition,3,sansforgetica,games,word,Probably not seen,1.0,not seen,guilty,3119,38,ok,12-04-2019 05:45
95,1.0,72.0,True,Non-designer,1,recognition,4,sansforgetica,wanted,word,Probably not seen,1.0,not seen,walls,1657,38,ok,12-04-2019 05:45
96,1.0,72.0,True,Non-designer,1,recognition,5,sansforgetica,mering,non-word,Sure seen,1.0,seen,mering,1763,38,ok,12-04-2019 05:45
97,1.0,72.0,True,Non-designer,1,recognition,6,sansforgetica,minute,word,Sure seen,1.0,seen,minute,1354,38,ok,12-04-2019 05:45
98,1.0,72.0,True,Non-designer,1,recognition,7,sansforgetica,claim,word,Sure seen,1.0,seen,claim,1222,38,ok,12-04-2019 05:45
99,1.0,72.0,True,Non-designer,1,recognition,8,sansforgetica,popular,word,Probably not seen,1.0,not seen,politics,2049,38,ok,12-04-2019 05:45
100,1.0,72.0,True,Non-designer,1,recognition,9,sansforgetica,names,word,Sure seen,1.0,seen,names,1654,38,ok,12-04-2019 05:45
101,1.0,72.0,True,Non-designer,1,recognition,10,sansforgetica,chason,non-word,Probably not seen,1.0,not seen,chares,2617,38,ok,12-04-2019 05:45
102,1.0,72.0,True,Non-designer,1,recognition,11,sansforgetica,battle,word,Sure seen,1.0,seen,battle,1557,38,ok,12-04-2019 05:45
103,1.0,72.0,True,Non-designer,1,recognition,12,sansforgetica,rutongance,non-word,Probably seen,0.0,not seen,rutogement,2249,38,ok,12-04-2019 05:45
104,1.0,72.0,True,Non-designer,1,recognition,13,sansforgetica,riddly,non-word,Sure seen,1.0,seen,riddly,2651,38,ok,12-04-2019 05:45
105,1.0,72.0,True,Non-designer,1,recognition,14,sansforgetica,romoting,non-word,Sure seen,1.0,seen,romoting,1576,38,ok,12-04-2019 05:45
106,1.0,72.0,True,Non-designer,1,recognition,15,sansforgetica,envolase,non-word,Sure seen,1.0,seen,envolase,1787,38,ok,12-04-2019 05:45
107,1.0,72.0,True,Non-designer,1,recognition,16,sansforgetica,calls,word,Probably not seen,1.0,not seen,calling,3172,38,ok,12-04-2019 05:45
108,1.0,72.0,True,Non-designer,2,lexical,1,arial,unformately,non-word,Sure non-word,1.0,,,4786,55,very easy to read,12-04-2019 05:45
109,1.0,72.0,True,Non-designer,2,lexical,2,arial,brown,word,Sure word,1.0,,,2151,55,very easy to read,12-04-2019 05:45
110,1.0,72.0,True,Non-designer,2,lexical,3,arial,enoups,non-word,Sure non-word,1.0,,,2355,55,very easy to read,12-04-2019 05:45
111,1.0,72.0,True,Non-designer,2,lexical,4,arial,getting,word,Sure word,1.0,,,5817,55,very easy to read,12-04-2019 05:45
112,1.0,72.0,True,Non-designer,2,lexical,5,arial,british,word,Sure word,1.0,,,1378,55,very easy to read,12-04-2019 05:45
113,1.0,72.0,True,Non-designer,2,lexical,6,arial,differsive,non-word,Probably non-word,1.0,,,2249,55,very easy to read,12-04-2019 05:45
114,1.0,72.0,True,Non-designer,2,lexical,7,arial,pritain,non-word,Probably non-word,1.0,,,3708,55,very easy to read,12-04-2019 05:45
115,1.0,72.0,True,Non-designer,2,lexical,8,arial,north,word,Sure word,1.0,,,2203,55,very easy to read,12-04-2019 05:45
116,1.0,72.0,True,Non-designer,2,lexical,9,arial,mandon,non-word,Probably non-word,1.0,,,2224,55,very easy to read,12-04-2019 05:45
117,1.0,72.0,True,Non-designer,2,lexical,10,arial,rountes,non-word,Probably non-word,1.0,,,1601,55,very easy to read,12-04-2019 05:45
118,1.0,72.0,True,Non-designer,2,lexical,11,arial,allond,non-word,Probably non-word,1.0,,,1399,55,very easy to read,12-04-2019 05:45
119,1.0,72.0,True,Non-designer,2,lexical,12,arial,prosequents,non-word,Probably non-word,1.0,,,2733,55,very easy to read,12-04-2019 05:45
120,1.0,72.0,True,Non-designer,2,lexical,13,arial,nords,non-word,Probably non-word,1.0,,,1968,55,very easy to read,12-04-2019 05:45
121,1.0,72.0,True,Non-designer,2,lexical,14,arial,happy,word,Sure word,1.0,,,1649,55,very easy to read,12-04-2019 05:45
122,1.0,72.0,True,Non-designer,2,lexical,15,arial,original,word,Sure word,1.0,,,1471,55,very easy to read,12-04-2019 05:45
123,1.0,72.0,True,Non-designer,2,lexical,16,arial,clothes,word,Sure word,1.0,,,955,55,very easy to read,12-04-2019 05:45
124,1.0,72.0,True,Non-designer,2,lexical,17,arial,royal,word,Sure word,1.0,,,1540,55,very easy to read,12-04-2019 05:45
125,1.0,72.0,True,Non-designer,2,lexical,18,arial,impossible,word,Sure word,1.0,,,1223,55,very easy to read,12-04-2019 05:45
126,1.0,72.0,True,Non-designer,2,lexical,19,arial,process,word,Sure word,1.0,,,1473,55,very easy to read,12-04-2019 05:45
127,1.0,72.0,True,Non-designer,2,lexical,20,arial,macking,non-word,Probably non-word,1.0,,,2160,55,very easy to read,12-04-2019 05:45
128,1.0,72.0,True,Non-designer,2,recognition,1,arial,unfortiated,non-word,Probably not seen,1.0,not seen,unformately,2318,55,very easy to read,12-04-2019 05:45
129,1.0,72.0,True,Non-designer,2,recognition,2,arial,production,word,Probably not seen,1.0,not seen,process,2678,55,very easy to read,12-04-2019 05:45
130,1.0,72.0,True,Non-designer,2,recognition,3,arial,mandon,non-word,Sure seen,1.0,seen,mandon,1935,55,very easy to read,12-04-2019 05:45
131,1.0,72.0,True,Non-designer,2,recognition,4,arial,prospries,non-word,Probably not seen,1.0,not seen,prosequents,3683,55,very easy to read,12-04-2019 05:45
132,1.0,72.0,True,Non-designer,2,recognition,5,arial,macking,non-word,Sure seen,1.0,seen,macking,2497,55,very easy to read,12-04-2019 05:45
133,1.0,72.0,True,Non-designer,2,recognition,6,arial,others,word,Probably not seen,1.0,not seen,original,1643,55,very easy to read,12-04-2019 05:45
134,1.0,72.0,True,Non-designer,2,recognition,7,arial,brown,word,Sure seen,1.0,seen,brown,1924,55,very easy to read,12-04-2019 05:45
135,1.0,72.0,True,Non-designer,2,recognition,8,arial,rublic,non-word,Probably not seen,1.0,not seen,rountes,1626,55,very easy to read,12-04-2019 05:45
136,1.0,72.0,True,Non-designer,2,recognition,9,arial,hardly,word,Probably not seen,1.0,not seen,happy,1833,55,very easy to read,12-04-2019 05:45
137,1.0,72.0,True,Non-designer,2,recognition,10,arial,coffee,word,Probably not seen,1.0,not seen,clothes,1325,55,very easy to read,12-04-2019 05:45
138,1.0,72.0,True,Non-designer,2,recognition,11,arial,differsive,non-word,Probably seen,1.0,seen,differsive,2349,55,very easy to read,12-04-2019 05:45
139,1.0,72.0,True,Non-designer,2,recognition,12,arial,pritain,non-word,Sure seen,1.0,seen,pritain,1464,55,very easy to read,12-04-2019 05:45
140,1.0,72.0,True,Non-designer,2,recognition,13,arial,norectly,non-word,Probably not seen,1.0,not seen,nords,2037,55,very easy to read,12-04-2019 05:45
141,1.0,72.0,True,Non-designer,2,recognition,14,arial,royal,word,Sure seen,1.0,seen,royal,1641,55,very easy to read,12-04-2019 05:45
142,1.0,72.0,True,Non-designer,2,recognition,15,arial,north,word,Sure seen,1.0,seen,north,1231,55,very easy to read,12-04-2019 05:45
143,1.0,72.0,True,Non-designer,2,recognition,16,arial,british,word,Sure seen,1.0,seen,british,1167,55,very easy to read,12-04-2019 05:45
144,1.0,144.0,True,Non-designer,1,lexical,1,arial,incriance,non-word,Probably non-word,1.0,,,12095,77,very easy to read,12-04-2019 03:38
145,1.0,144.0,True,Non-designer,1,lexical,2,arial,suggers,non-word,Probably non-word,1.0,,,7668,77,very easy to read,12-04-2019 03:38
146,1.0,144.0,True,Non-designer,1,lexical,3,arial,nature,word,Sure word,1.0,,,1878,77,very easy to read,12-04-2019 03:38
147,1.0,144.0,True,Non-designer,1,lexical,4,arial,congressary,non-word,Sure word,0.0,,,3968,77,very easy to read,12-04-2019 03:38
148,1.0,144.0,True,Non-designer,1,lexical,5,arial,larms,non-word,Probably non-word,1.0,,,3101,77,very easy to read,12-04-2019 03:38
149,1.0,144.0,True,Non-designer,1,lexical,6,arial,narnisite,non-word,Probably word,0.0,,,4622,77,very easy to read,12-04-2019 03:38
150,1.0,144.0,True,Non-designer,1,lexical,7,arial,impording,non-word,Probably word,0.0,,,2129,77,very easy to read,12-04-2019 03:38
151,1.0,144.0,True,Non-designer,1,lexical,8,arial,majority,word,Sure word,1.0,,,1629,77,very easy to read,12-04-2019 03:38
152,1.0,144.0,True,Non-designer,1,lexical,9,arial,gream,non-word,Probably word,0.0,,,2887,77,very easy to read,12-04-2019 03:38
153,1.0,144.0,True,Non-designer,1,lexical,10,arial,sechniall,non-word,Probably non-word,1.0,,,8071,77,very easy to read,12-04-2019 03:38
154,1.0,144.0,True,Non-designer,1,lexical,11,arial,provide,word,Sure word,1.0,,,1526,77,very easy to read,12-04-2019 03:38
155,1.0,144.0,True,Non-designer,1,lexical,12,arial,gently,word,Sure word,1.0,,,1249,77,very easy to read,12-04-2019 03:38
156,1.0,144.0,True,Non-designer,1,lexical,13,arial,summer,word,Sure word,1.0,,,1250,77,very easy to read,12-04-2019 03:38
157,1.0,144.0,True,Non-designer,1,lexical,14,arial,beight,non-word,Probably non-word,1.0,,,4426,77,very easy to read,12-04-2019 03:38
158,1.0,144.0,True,Non-designer,1,lexical,15,arial,stars,word,Sure word,1.0,,,1209,77,very easy to read,12-04-2019 03:38
159,1.0,144.0,True,Non-designer,1,lexical,16,arial,waiting,word,Sure word,1.0,,,1114,77,very easy to read,12-04-2019 03:38
160,1.0,144.0,True,Non-designer,1,lexical,17,arial,intervating,non-word,Sure word,0.0,,,2522,77,very easy to read,12-04-2019 03:38
161,1.0,144.0,True,Non-designer,1,lexical,18,arial,either,word,Sure word,1.0,,,1420,77,very easy to read,12-04-2019 03:38
162,1.0,144.0,True,Non-designer,1,lexical,19,arial,reported,word,Sure word,1.0,,,1479,77,very easy to read,12-04-2019 03:38
163,1.0,144.0,True,Non-designer,1,lexical,20,arial,those,word,Sure word,1.0,,,1335,77,very easy to read,12-04-2019 03:38
164,1.0,144.0,True,Non-designer,1,recognition,1,arial,inderected,non-word,Sure not seen,1.0,not seen,incriance,5820,77,very easy to read,12-04-2019 03:38
165,1.0,144.0,True,Non-designer,1,recognition,2,arial,gently,word,Sure seen,1.0,seen,gently,1897,77,very easy to read,12-04-2019 03:38
166,1.0,144.0,True,Non-designer,1,recognition,3,arial,election,word,Sure not seen,1.0,not seen,either,2287,77,very easy to read,12-04-2019 03:38
167,1.0,144.0,True,Non-designer,1,recognition,4,arial,though,word,Sure not seen,1.0,not seen,those,1916,77,very easy to read,12-04-2019 03:38
168,1.0,144.0,True,Non-designer,1,recognition,5,arial,reported,word,Sure seen,1.0,seen,reported,1848,77,very easy to read,12-04-2019 03:38
169,1.0,144.0,True,Non-designer,1,recognition,6,arial,beight,non-word,Sure seen,1.0,seen,beight,2500,77,very easy to read,12-04-2019 03:38
170,1.0,144.0,True,Non-designer,1,recognition,7,arial,majority,word,Sure seen,1.0,seen,majority,1831,77,very easy to read,12-04-2019 03:38
171,1.0,144.0,True,Non-designer,1,recognition,8,arial,natcher,non-word,Sure not seen,1.0,not seen,narnisite,2486,77,very easy to read,12-04-2019 03:38
172,1.0,144.0,True,Non-designer,1,recognition,9,arial,supply,word,Sure seen,0.0,not seen,summer,3501,77,very easy to read,12-04-2019 03:38
173,1.0,144.0,True,Non-designer,1,recognition,10,arial,stars,word,Sure seen,1.0,seen,stars,3513,77,very easy to read,12-04-2019 03:38
174,1.0,144.0,True,Non-designer,1,recognition,11,arial,inverstand,non-word,Probably not seen,1.0,not seen,intervating,5853,77,very easy to read,12-04-2019 03:38
175,1.0,144.0,True,Non-designer,1,recognition,12,arial,gream,non-word,Sure seen,1.0,seen,gream,1744,77,very easy to read,12-04-2019 03:38
176,1.0,144.0,True,Non-designer,1,recognition,13,arial,suggers,non-word,Sure seen,1.0,seen,suggers,1806,77,very easy to read,12-04-2019 03:38
177,1.0,144.0,True,Non-designer,1,recognition,14,arial,congressary,non-word,Sure seen,1.0,seen,congressary,1750,77,very easy to read,12-04-2019 03:38
178,1.0,144.0,True,Non-designer,1,recognition,15,arial,impreasive,non-word,Sure not seen,1.0,not seen,impording,5834,77,very easy to read,12-04-2019 03:38
179,1.0,144.0,True,Non-designer,1,recognition,16,arial,walked,word,Sure not seen,1.0,not seen,waiting,1816,77,very easy to read,12-04-2019 03:38
180,1.0,144.0,True,Non-designer,2,lexical,1,sansforgetica,tealissed,non-word,Probably non-word,1.0,,,15427,82,ok,12-04-2019 03:38
181,1.0,144.0,True,Non-designer,2,lexical,2,sansforgetica,audience,word,Sure word,1.0,,,1962,82,ok,12-04-2019 03:38
182,1.0,144.0,True,Non-designer,2,lexical,3,sansforgetica,unfortiated,non-word,Probably word,0.0,,,4614,82,ok,12-04-2019 03:38
183,1.0,144.0,True,Non-designer,2,lexical,4,sansforgetica,eight,word,Sure word,1.0,,,1802,82,ok,12-04-2019 03:38
184,1.0,144.0,True,Non-designer,2,lexical,5,sansforgetica,lunds,non-word,Probably non-word,1.0,,,2801,82,ok,12-04-2019 03:38
185,1.0,144.0,True,Non-designer,2,lexical,6,sansforgetica,mutomphers,non-word,Probably non-word,1.0,,,7152,82,ok,12-04-2019 03:38
186,1.0,144.0,True,Non-designer,2,lexical,7,sansforgetica,reached,word,Sure word,1.0,,,1459,82,ok,12-04-2019 03:38
187,1.0,144.0,True,Non-designer,2,lexical,8,sansforgetica,explained,word,Sure word,1.0,,,1636,82,ok,12-04-2019 03:38
188,1.0,144.0,True,Non-designer,2,lexical,9,sansforgetica,littor,non-word,Probably non-word,1.0,,,5198,82,ok,12-04-2019 03:38
189,1.0,144.0,True,Non-designer,2,lexical,10,sansforgetica,anotter,non-word,Sure non-word,1.0,,,5452,82,ok,12-04-2019 03:38
190,1.0,144.0,True,Non-designer,2,lexical,11,sansforgetica,similar,word,Sure word,1.0,,,2754,82,ok,12-04-2019 03:38
191,1.0,144.0,True,Non-designer,2,lexical,12,sansforgetica,general,word,Sure word,1.0,,,1483,82,ok,12-04-2019 03:38
192,1.0,144.0,True,Non-designer,2,lexical,13,sansforgetica,ended,word,Sure word,1.0,,,1433,82,ok,12-04-2019 03:38
193,1.0,144.0,True,Non-designer,2,lexical,14,sansforgetica,compaing,non-word,Probably non-word,1.0,,,6751,82,ok,12-04-2019 03:38
194,1.0,144.0,True,Non-designer,2,lexical,15,sansforgetica,prices,word,Sure word,1.0,,,1510,82,ok,12-04-2019 03:38
195,1.0,144.0,True,Non-designer,2,lexical,16,sansforgetica,matitary,non-word,Probably non-word,1.0,,,8928,82,ok,12-04-2019 03:38
196,1.0,144.0,True,Non-designer,2,lexical,17,sansforgetica,offered,word,Sure word,1.0,,,1325,82,ok,12-04-2019 03:38
197,1.0,144.0,True,Non-designer,2,lexical,18,sansforgetica,driftion,non-word,Probably non-word,1.0,,,3636,82,ok,12-04-2019 03:38
198,1.0,144.0,True,Non-designer,2,lexical,19,sansforgetica,recrophouts,non-word,Probably word,0.0,,,6799,82,ok,12-04-2019 03:38
199,1.0,144.0,True,Non-designer,2,lexical,20,sansforgetica,proportion,word,Sure word,1.0,,,2375,82,ok,12-04-2019 03:38
200,1.0,144.0,True,Non-designer,2,recognition,1,sansforgetica,rectined,non-word,Probably not seen,1.0,not seen,recrophouts,4549,82,ok,12-04-2019 03:38
201,1.0,144.0,True,Non-designer,2,recognition,2,sansforgetica,eight,word,Sure seen,1.0,seen,eight,1684,82,ok,12-04-2019 03:38
202,1.0,144.0,True,Non-designer,2,recognition,3,sansforgetica,comparation,non-word,Sure seen,0.0,not seen,compaing,2838,82,ok,12-04-2019 03:38
203,1.0,144.0,True,Non-designer,2,recognition,4,sansforgetica,tealissed,non-word,Sure seen,1.0,seen,tealissed,2233,82,ok,12-04-2019 03:38
204,1.0,144.0,True,Non-designer,2,recognition,5,sansforgetica,reached,word,Sure seen,1.0,seen,reached,1882,82,ok,12-04-2019 03:38
205,1.0,144.0,True,Non-designer,2,recognition,6,sansforgetica,office,word,Sure not seen,1.0,not seen,offered,2317,82,ok,12-04-2019 03:38
206,1.0,144.0,True,Non-designer,2,recognition,7,sansforgetica,generally,word,Sure not seen,1.0,not seen,general,2595,82,ok,12-04-2019 03:38
207,1.0,144.0,True,Non-designer,2,recognition,8,sansforgetica,lunnest,non-word,Sure not seen,1.0,not seen,lunds,2352,82,ok,12-04-2019 03:38
208,1.0,144.0,True,Non-designer,2,recognition,9,sansforgetica,proportion,word,Sure seen,1.0,seen,proportion,1937,82,ok,12-04-2019 03:38
209,1.0,144.0,True,Non-designer,2,recognition,10,sansforgetica,explained,word,Sure seen,1.0,seen,explained,1929,82,ok,12-04-2019 03:38
210,1.0,144.0,True,Non-designer,2,recognition,11,sansforgetica,mutomphers,non-word,Sure seen,1.0,seen,mutomphers,2034,82,ok,12-04-2019 03:38
211,1.0,144.0,True,Non-designer,2,recognition,12,sansforgetica,prime,word,Sure not seen,1.0,not seen,prices,2429,82,ok,12-04-2019 03:38
212,1.0,144.0,True,Non-designer,2,recognition,13,sansforgetica,unfortiated,non-word,Probably seen,1.0,seen,unfortiated,2907,82,ok,12-04-2019 03:38
213,1.0,144.0,True,Non-designer,2,recognition,14,sansforgetica,enemy,word,Sure not seen,1.0,not seen,ended,2831,82,ok,12-04-2019 03:38
214,1.0,144.0,True,Non-designer,2,recognition,15,sansforgetica,matitary,non-word,Sure seen,1.0,seen,matitary,2116,82,ok,12-04-2019 03:38
215,1.0,144.0,True,Non-designer,2,recognition,16,sansforgetica,lodieves,non-word,Sure not seen,1.0,not seen,littor,2985,82,ok,12-04-2019 03:38
216,1.0,216.0,True,Non-designer,1,lexical,1,sansforgetica,listen,word,Sure word,1.0,,,5324,71,difficult to read,12-04-2019 03:11
217,1.0,216.0,True,Non-designer,1,lexical,2,sansforgetica,hours,word,Sure word,1.0,,,2506,71,difficult to read,12-04-2019 03:11
218,1.0,216.0,True,Non-designer,1,lexical,3,sansforgetica,sector,word,Sure word,1.0,,,1657,71,difficult to read,12-04-2019 03:11
219,1.0,216.0,True,Non-designer,1,lexical,4,sansforgetica,division,word,Sure word,1.0,,,1625,71,difficult to read,12-04-2019 03:11
220,1.0,216.0,True,Non-designer,1,lexical,5,sansforgetica,accident,word,Sure word,1.0,,,1663,71,difficult to read,12-04-2019 03:11
221,1.0,216.0,True,Non-designer,1,lexical,6,sansforgetica,similar,word,Sure word,1.0,,,2076,71,difficult to read,12-04-2019 03:11
222,1.0,216.0,True,Non-designer,1,lexical,7,sansforgetica,simplete,non-word,Probably non-word,1.0,,,4121,71,difficult to read,12-04-2019 03:11
223,1.0,216.0,True,Non-designer,1,lexical,8,sansforgetica,surcenters,non-word,Probably non-word,1.0,,,4406,71,difficult to read,12-04-2019 03:11
224,1.0,216.0,True,Non-designer,1,lexical,9,sansforgetica,absturable,non-word,Sure non-word,1.0,,,2548,71,difficult to read,12-04-2019 03:11
225,1.0,216.0,True,Non-designer,1,lexical,10,sansforgetica,treatment,word,Sure word,1.0,,,3247,71,difficult to read,12-04-2019 03:11
226,1.0,216.0,True,Non-designer,1,lexical,11,sansforgetica,statement,word,Sure word,1.0,,,1846,71,difficult to read,12-04-2019 03:11
227,1.0,216.0,True,Non-designer,1,lexical,12,sansforgetica,continated,non-word,Sure non-word,1.0,,,3490,71,difficult to read,12-04-2019 03:11
228,1.0,216.0,True,Non-designer,1,lexical,13,sansforgetica,servants,word,Sure word,1.0,,,3256,71,difficult to read,12-04-2019 03:11
229,1.0,216.0,True,Non-designer,1,lexical,14,sansforgetica,decky,non-word,Probably non-word,1.0,,,4092,71,difficult to read,12-04-2019 03:11
230,1.0,216.0,True,Non-designer,1,lexical,15,sansforgetica,undublisted,non-word,Sure non-word,1.0,,,3002,71,difficult to read,12-04-2019 03:11
231,1.0,216.0,True,Non-designer,1,lexical,16,sansforgetica,lithin,non-word,Probably non-word,1.0,,,2652,71,difficult to read,12-04-2019 03:11
232,1.0,216.0,True,Non-designer,1,lexical,17,sansforgetica,dearn,non-word,Sure non-word,1.0,,,4698,71,difficult to read,12-04-2019 03:11
233,1.0,216.0,True,Non-designer,1,lexical,18,sansforgetica,admit,word,Sure word,1.0,,,1884,71,difficult to read,12-04-2019 03:11
234,1.0,216.0,True,Non-designer,1,lexical,19,sansforgetica,darrity,non-word,Probably non-word,1.0,,,2850,71,difficult to read,12-04-2019 03:11
235,1.0,216.0,True,Non-designer,1,lexical,20,sansforgetica,shass,non-word,Sure non-word,1.0,,,1906,71,difficult to read,12-04-2019 03:11
236,1.0,216.0,True,Non-designer,1,recognition,1,sansforgetica,acadence,non-word,Sure not seen,1.0,not seen,absturable,3479,71,difficult to read,12-04-2019 03:11
237,1.0,216.0,True,Non-designer,1,recognition,2,sansforgetica,division,word,Sure seen,1.0,seen,division,2233,71,difficult to read,12-04-2019 03:11
238,1.0,216.0,True,Non-designer,1,recognition,3,sansforgetica,security,word,Sure not seen,1.0,not seen,sector,1988,71,difficult to read,12-04-2019 03:11
239,1.0,216.0,True,Non-designer,1,recognition,4,sansforgetica,dechnology,non-word,Sure not seen,1.0,not seen,dearn,1694,71,difficult to read,12-04-2019 03:11
240,1.0,216.0,True,Non-designer,1,recognition,5,sansforgetica,adult,word,Sure not seen,1.0,not seen,admit,2543,71,difficult to read,12-04-2019 03:11
241,1.0,216.0,True,Non-designer,1,recognition,6,sansforgetica,hours,word,Sure seen,1.0,seen,hours,1703,71,difficult to read,12-04-2019 03:11
242,1.0,216.0,True,Non-designer,1,recognition,7,sansforgetica,listen,word,Sure seen,1.0,seen,listen,1483,71,difficult to read,12-04-2019 03:11
243,1.0,216.0,True,Non-designer,1,recognition,8,sansforgetica,littletely,non-word,Sure not seen,1.0,not seen,lithin,1678,71,difficult to read,12-04-2019 03:11
244,1.0,216.0,True,Non-designer,1,recognition,9,sansforgetica,simplete,non-word,Sure seen,1.0,seen,simplete,1839,71,difficult to read,12-04-2019 03:11
245,1.0,216.0,True,Non-designer,1,recognition,10,sansforgetica,darrity,non-word,Sure seen,1.0,seen,darrity,1605,71,difficult to read,12-04-2019 03:11
246,1.0,216.0,True,Non-designer,1,recognition,11,sansforgetica,treatment,word,Sure seen,1.0,seen,treatment,1299,71,difficult to read,12-04-2019 03:11
247,1.0,216.0,True,Non-designer,1,recognition,12,sansforgetica,served,word,Sure not seen,1.0,not seen,servants,1850,71,difficult to read,12-04-2019 03:11
248,1.0,216.0,True,Non-designer,1,recognition,13,sansforgetica,suronder,non-word,Sure not seen,1.0,not seen,surcenters,1690,71,difficult to read,12-04-2019 03:11
249,1.0,216.0,True,Non-designer,1,recognition,14,sansforgetica,simply,word,Sure not seen,1.0,not seen,similar,1663,71,difficult to read,12-04-2019 03:11
250,1.0,216.0,True,Non-designer,1,recognition,15,sansforgetica,continated,non-word,Probably seen,1.0,seen,continated,5199,71,difficult to read,12-04-2019 03:11
251,1.0,216.0,True,Non-designer,1,recognition,16,sansforgetica,shass,non-word,Sure seen,1.0,seen,shass,1697,71,difficult to read,12-04-2019 03:11
252,1.0,216.0,True,Non-designer,2,lexical,1,arial,front,word,Sure word,1.0,,,8950,78,very easy to read,12-04-2019 03:11
253,1.0,216.0,True,Non-designer,2,lexical,2,arial,energy,word,Sure word,1.0,,,1894,78,very easy to read,12-04-2019 03:11
254,1.0,216.0,True,Non-designer,2,lexical,3,arial,conferation,non-word,Probably non-word,1.0,,,4221,78,very easy to read,12-04-2019 03:11
255,1.0,216.0,True,Non-designer,2,lexical,4,arial,beckeys,non-word,Sure non-word,1.0,,,1919,78,very easy to read,12-04-2019 03:11
256,1.0,216.0,True,Non-designer,2,lexical,5,arial,develop,word,Sure word,1.0,,,1606,78,very easy to read,12-04-2019 03:11
257,1.0,216.0,True,Non-designer,2,lexical,6,arial,miles,word,Sure word,1.0,,,1582,78,very easy to read,12-04-2019 03:11
258,1.0,216.0,True,Non-designer,2,lexical,7,arial,religious,word,Sure word,1.0,,,1471,78,very easy to read,12-04-2019 03:11
259,1.0,216.0,True,Non-designer,2,lexical,8,arial,command,word,Sure word,1.0,,,1545,78,very easy to read,12-04-2019 03:11
260,1.0,216.0,True,Non-designer,2,lexical,9,arial,increaul,non-word,Sure non-word,1.0,,,1961,78,very easy to read,12-04-2019 03:11
261,1.0,216.0,True,Non-designer,2,lexical,10,arial,unfortiated,non-word,Probably non-word,1.0,,,2561,78,very easy to read,12-04-2019 03:11
262,1.0,216.0,True,Non-designer,2,lexical,11,arial,ultomobile,non-word,Sure non-word,1.0,,,2159,78,very easy to read,12-04-2019 03:11
263,1.0,216.0,True,Non-designer,2,lexical,12,arial,pieces,word,Sure word,1.0,,,1653,78,very easy to read,12-04-2019 03:11
264,1.0,216.0,True,Non-designer,2,lexical,13,arial,morence,non-word,Sure non-word,1.0,,,1661,78,very easy to read,12-04-2019 03:11
265,1.0,216.0,True,Non-designer,2,lexical,14,arial,societies,word,Sure word,1.0,,,1885,78,very easy to read,12-04-2019 03:11
266,1.0,216.0,True,Non-designer,2,lexical,15,arial,minalry,non-word,Probably non-word,1.0,,,2238,78,very easy to read,12-04-2019 03:11
267,1.0,216.0,True,Non-designer,2,lexical,16,arial,martain,non-word,Sure non-word,1.0,,,3624,78,very easy to read,12-04-2019 03:11
268,1.0,216.0,True,Non-designer,2,lexical,17,arial,specions,non-word,Probably non-word,1.0,,,2436,78,very easy to read,12-04-2019 03:11
269,1.0,216.0,True,Non-designer,2,lexical,18,arial,remangth,non-word,Sure non-word,1.0,,,2961,78,very easy to read,12-04-2019 03:11
270,1.0,216.0,True,Non-designer,2,lexical,19,arial,count,word,Sure word,1.0,,,1761,78,very easy to read,12-04-2019 03:11
271,1.0,216.0,True,Non-designer,2,lexical,20,arial,familiar,word,Sure word,1.0,,,1326,78,very easy to read,12-04-2019 03:11
272,1.0,216.0,True,Non-designer,2,recognition,1,arial,remain,word,Sure seen,0.0,not seen,religious,5729,78,very easy to read,12-04-2019 03:11
273,1.0,216.0,True,Non-designer,2,recognition,2,arial,families,word,Probably not seen,1.0,not seen,familiar,9325,78,very easy to read,12-04-2019 03:11
274,1.0,216.0,True,Non-designer,2,recognition,3,arial,count,word,Probably not seen,0.0,seen,count,854,78,very easy to read,12-04-2019 03:11
275,1.0,216.0,True,Non-designer,2,recognition,4,arial,mastruntion,non-word,Probably not seen,1.0,not seen,martain,1836,78,very easy to read,12-04-2019 03:11
276,1.0,216.0,True,Non-designer,2,recognition,5,arial,specket,non-word,Sure not seen,1.0,not seen,specions,1765,78,very easy to read,12-04-2019 03:11
277,1.0,216.0,True,Non-designer,2,recognition,6,arial,enjoy,word,Sure seen,0.0,not seen,energy,3451,78,very easy to read,12-04-2019 03:11
278,1.0,216.0,True,Non-designer,2,recognition,7,arial,develop,word,Sure seen,1.0,seen,develop,1349,78,very easy to read,12-04-2019 03:11
279,1.0,216.0,True,Non-designer,2,recognition,8,arial,minalry,non-word,Sure seen,1.0,seen,minalry,1683,78,very easy to read,12-04-2019 03:11
280,1.0,216.0,True,Non-designer,2,recognition,9,arial,umbrated,non-word,Sure not seen,1.0,not seen,ultomobile,2747,78,very easy to read,12-04-2019 03:11
281,1.0,216.0,True,Non-designer,2,recognition,10,arial,remansion,non-word,Sure not seen,1.0,not seen,remangth,1884,78,very easy to read,12-04-2019 03:11
282,1.0,216.0,True,Non-designer,2,recognition,11,arial,commercial,word,Sure not seen,1.0,not seen,command,1805,78,very easy to read,12-04-2019 03:11
283,1.0,216.0,True,Non-designer,2,recognition,12,arial,pieces,word,Sure seen,1.0,seen,pieces,1526,78,very easy to read,12-04-2019 03:11
284,1.0,216.0,True,Non-designer,2,recognition,13,arial,morence,non-word,Sure seen,1.0,seen,morence,1534,78,very easy to read,12-04-2019 03:11
285,1.0,216.0,True,Non-designer,2,recognition,14,arial,miles,word,Sure seen,1.0,seen,miles,1429,78,very easy to read,12-04-2019 03:11
286,1.0,216.0,True,Non-designer,2,recognition,15,arial,increaul,non-word,Sure seen,1.0,seen,increaul,1427,78,very easy to read,12-04-2019 03:11
287,1.0,216.0,True,Non-designer,2,recognition,16,arial,unfortiated,non-word,Sure seen,1.0,seen,unfortiated,1565,78,very easy to read,12-04-2019 03:11
288,1.0,288.0,True,Non-designer,1,lexical,1,arial,thinking,word,Sure word,1.0,,,2558,62,very easy to read,12-04-2019 03:05
289,1.0,288.0,True,Non-designer,1,lexical,2,arial,president,word,Sure word,1.0,,,2085,62,very easy to read,12-04-2019 03:05
290,1.0,288.0,True,Non-designer,1,lexical,3,arial,eleatome,non-word,Sure non-word,1.0,,,6734,62,very easy to read,12-04-2019 03:05
291,1.0,288.0,True,Non-designer,1,lexical,4,arial,neacten,non-word,Sure non-word,1.0,,,2930,62,very easy to read,12-04-2019 03:05
292,1.0,288.0,True,Non-designer,1,lexical,5,arial,preaped,non-word,Sure non-word,1.0,,,5815,62,very easy to read,12-04-2019 03:05
293,1.0,288.0,True,Non-designer,1,lexical,6,arial,greatest,word,Sure word,1.0,,,1659,62,very easy to read,12-04-2019 03:05
294,1.0,288.0,True,Non-designer,1,lexical,7,arial,misappriate,non-word,Probably word,0.0,,,3975,62,very easy to read,12-04-2019 03:05
295,1.0,288.0,True,Non-designer,1,lexical,8,arial,compritable,non-word,Sure non-word,1.0,,,3538,62,very easy to read,12-04-2019 03:05
296,1.0,288.0,True,Non-designer,1,lexical,9,arial,sunget,non-word,Probably non-word,1.0,,,2454,62,very easy to read,12-04-2019 03:05
297,1.0,288.0,True,Non-designer,1,lexical,10,arial,despite,word,Sure word,1.0,,,1799,62,very easy to read,12-04-2019 03:05
298,1.0,288.0,True,Non-designer,1,lexical,11,arial,attertant,non-word,Probably non-word,1.0,,,6002,62,very easy to read,12-04-2019 03:05
299,1.0,288.0,True,Non-designer,1,lexical,12,arial,religious,word,Sure word,1.0,,,1876,62,very easy to read,12-04-2019 03:05
300,1.0,288.0,True,Non-designer,1,lexical,13,arial,officers,word,Sure word,1.0,,,1772,62,very easy to read,12-04-2019 03:05
301,1.0,288.0,True,Non-designer,1,lexical,14,arial,fraditted,non-word,Probably non-word,1.0,,,5838,62,very easy to read,12-04-2019 03:05
302,1.0,288.0,True,Non-designer,1,lexical,15,arial,cannot,word,Sure word,1.0,,,1648,62,very easy to read,12-04-2019 03:05
303,1.0,288.0,True,Non-designer,1,lexical,16,arial,perfectly,word,Sure word,1.0,,,1564,62,very easy to read,12-04-2019 03:05
304,1.0,288.0,True,Non-designer,1,lexical,17,arial,senal,non-word,Sure non-word,1.0,,,2488,62,very easy to read,12-04-2019 03:05
305,1.0,288.0,True,Non-designer,1,lexical,18,arial,shannishes,non-word,Sure non-word,1.0,,,1953,62,very easy to read,12-04-2019 03:05
306,1.0,288.0,True,Non-designer,1,lexical,19,arial,allow,word,Sure word,1.0,,,1554,62,very easy to read,12-04-2019 03:05
307,1.0,288.0,True,Non-designer,1,lexical,20,arial,leaves,word,Sure word,1.0,,,1502,62,very easy to read,12-04-2019 03:05
308,1.0,288.0,True,Non-designer,1,recognition,1,arial,official,word,Probably not seen,1.0,not seen,officers,7156,62,very easy to read,12-04-2019 03:05
309,1.0,288.0,True,Non-designer,1,recognition,2,arial,perfectly,word,Probably seen,1.0,seen,perfectly,3147,62,very easy to read,12-04-2019 03:05
310,1.0,288.0,True,Non-designer,1,recognition,3,arial,leaves,word,Sure seen,1.0,seen,leaves,2066,62,very easy to read,12-04-2019 03:05
311,1.0,288.0,True,Non-designer,1,recognition,4,arial,miscuity,non-word,Sure not seen,1.0,not seen,misappriate,2080,62,very easy to read,12-04-2019 03:05
312,1.0,288.0,True,Non-designer,1,recognition,5,arial,shass,non-word,Sure not seen,1.0,not seen,shannishes,3293,62,very easy to read,12-04-2019 03:05
313,1.0,288.0,True,Non-designer,1,recognition,6,arial,green,word,Sure not seen,1.0,not seen,greatest,1939,62,very easy to read,12-04-2019 03:05
314,1.0,288.0,True,Non-designer,1,recognition,7,arial,compution,non-word,Sure not seen,1.0,not seen,compritable,2335,62,very easy to read,12-04-2019 03:05
315,1.0,288.0,True,Non-designer,1,recognition,8,arial,eleatome,non-word,Sure seen,1.0,seen,eleatome,2081,62,very easy to read,12-04-2019 03:05
316,1.0,288.0,True,Non-designer,1,recognition,9,arial,senal,non-word,Sure seen,1.0,seen,senal,1942,62,very easy to read,12-04-2019 03:05
317,1.0,288.0,True,Non-designer,1,recognition,10,arial,preaped,non-word,Sure seen,1.0,seen,preaped,2381,62,very easy to read,12-04-2019 03:05
318,1.0,288.0,True,Non-designer,1,recognition,11,arial,attrusive,non-word,Probably not seen,1.0,not seen,attertant,2836,62,very easy to read,12-04-2019 03:05
319,1.0,288.0,True,Non-designer,1,recognition,12,arial,third,word,Sure not seen,1.0,not seen,thinking,2223,62,very easy to read,12-04-2019 03:05
320,1.0,288.0,True,Non-designer,1,recognition,13,arial,neacten,non-word,Sure seen,1.0,seen,neacten,2089,62,very easy to read,12-04-2019 03:05
321,1.0,288.0,True,Non-designer,1,recognition,14,arial,religious,word,Sure seen,1.0,seen,religious,1840,62,very easy to read,12-04-2019 03:05
322,1.0,288.0,True,Non-designer,1,recognition,15,arial,details,word,Probably not seen,1.0,not seen,despite,2835,62,very easy to read,12-04-2019 03:05
323,1.0,288.0,True,Non-designer,1,recognition,16,arial,president,word,Sure seen,1.0,seen,president,1748,62,very easy to read,12-04-2019 03:05
324,1.0,288.0,True,Non-designer,2,lexical,1,sansforgetica,undertaned,non-word,Sure non-word,1.0,,,9056,64,difficult to read,12-04-2019 03:05
325,1.0,288.0,True,Non-designer,2,lexical,2,sansforgetica,repearated,non-word,Probably non-word,1.0,,,7495,64,difficult to read,12-04-2019 03:05
326,1.0,288.0,True,Non-designer,2,lexical,3,sansforgetica,business,word,Sure word,1.0,,,2123,64,difficult to read,12-04-2019 03:05
327,1.0,288.0,True,Non-designer,2,lexical,4,sansforgetica,hartilment,non-word,Sure non-word,1.0,,,3732,64,difficult to read,12-04-2019 03:05
328,1.0,288.0,True,Non-designer,2,lexical,5,sansforgetica,peace,word,Sure word,1.0,,,1635,64,difficult to read,12-04-2019 03:05
329,1.0,288.0,True,Non-designer,2,lexical,6,sansforgetica,somewhere,word,Sure word,1.0,,,3170,64,difficult to read,12-04-2019 03:05
330,1.0,288.0,True,Non-designer,2,lexical,7,sansforgetica,walls,word,Sure word,1.0,,,1591,64,difficult to read,12-04-2019 03:05
331,1.0,288.0,True,Non-designer,2,lexical,8,sansforgetica,conscioning,non-word,Sure non-word,1.0,,,3180,64,difficult to read,12-04-2019 03:05
332,1.0,288.0,True,Non-designer,2,lexical,9,sansforgetica,government,word,Sure word,1.0,,,1566,64,difficult to read,12-04-2019 03:05
333,1.0,288.0,True,Non-designer,2,lexical,10,sansforgetica,divitive,non-word,Sure non-word,1.0,,,3738,64,difficult to read,12-04-2019 03:05
334,1.0,288.0,True,Non-designer,2,lexical,11,sansforgetica,fissely,non-word,Probably non-word,1.0,,,4650,64,difficult to read,12-04-2019 03:05
335,1.0,288.0,True,Non-designer,2,lexical,12,sansforgetica,moving,word,Sure word,1.0,,,1499,64,difficult to read,12-04-2019 03:05
336,1.0,288.0,True,Non-designer,2,lexical,13,sansforgetica,learn,word,Sure word,1.0,,,1722,64,difficult to read,12-04-2019 03:05
337,1.0,288.0,True,Non-designer,2,lexical,14,sansforgetica,fildle,non-word,Probably non-word,1.0,,,4880,64,difficult to read,12-04-2019 03:05
338,1.0,288.0,True,Non-designer,2,lexical,15,sansforgetica,confidence,word,Sure word,1.0,,,1621,64,difficult to read,12-04-2019 03:05
339,1.0,288.0,True,Non-designer,2,lexical,16,sansforgetica,needed,word,Sure word,1.0,,,1711,64,difficult to read,12-04-2019 03:05
340,1.0,288.0,True,Non-designer,2,lexical,17,sansforgetica,familiar,word,Sure word,1.0,,,1571,64,difficult to read,12-04-2019 03:05
341,1.0,288.0,True,Non-designer,2,lexical,18,sansforgetica,lunds,non-word,Probably non-word,1.0,,,3437,64,difficult to read,12-04-2019 03:05
342,1.0,288.0,True,Non-designer,2,lexical,19,sansforgetica,adolormated,non-word,Sure non-word,1.0,,,6364,64,difficult to read,12-04-2019 03:05
343,1.0,288.0,True,Non-designer,2,lexical,20,sansforgetica,revernment,non-word,Sure non-word,1.0,,,3115,64,difficult to read,12-04-2019 03:05
344,1.0,288.0,True,Non-designer,2,recognition,1,sansforgetica,advanth,non-word,Sure not seen,1.0,not seen,adolormated,2773,64,difficult to read,12-04-2019 03:05
345,1.0,288.0,True,Non-designer,2,recognition,2,sansforgetica,government,word,Sure seen,1.0,seen,government,1775,64,difficult to read,12-04-2019 03:05
346,1.0,288.0,True,Non-designer,2,recognition,3,sansforgetica,fissity,non-word,Probably not seen,1.0,not seen,fissely,3995,64,difficult to read,12-04-2019 03:05
347,1.0,288.0,True,Non-designer,2,recognition,4,sansforgetica,divitive,non-word,Probably seen,1.0,seen,divitive,2462,64,difficult to read,12-04-2019 03:05
348,1.0,288.0,True,Non-designer,2,recognition,5,sansforgetica,headent,non-word,Sure not seen,1.0,not seen,hartilment,2693,64,difficult to read,12-04-2019 03:05
349,1.0,288.0,True,Non-designer,2,recognition,6,sansforgetica,lunnest,non-word,Probably seen,0.0,not seen,lunds,3657,64,difficult to read,12-04-2019 03:05
350,1.0,288.0,True,Non-designer,2,recognition,7,sansforgetica,revernment,non-word,Sure seen,1.0,seen,revernment,2334,64,difficult to read,12-04-2019 03:05
351,1.0,288.0,True,Non-designer,2,recognition,8,sansforgetica,fildle,non-word,Sure seen,1.0,seen,fildle,1844,64,difficult to read,12-04-2019 03:05
352,1.0,288.0,True,Non-designer,2,recognition,9,sansforgetica,moving,word,Probably not seen,0.0,seen,moving,2458,64,difficult to read,12-04-2019 03:05
353,1.0,288.0,True,Non-designer,2,recognition,10,sansforgetica,confidence,word,Probably not seen,0.0,seen,confidence,3582,64,difficult to read,12-04-2019 03:05
354,1.0,288.0,True,Non-designer,2,recognition,11,sansforgetica,familiar,word,Probably seen,1.0,seen,familiar,3892,64,difficult to read,12-04-2019 03:05
355,1.0,288.0,True,Non-designer,2,recognition,12,sansforgetica,sorry,word,Sure not seen,1.0,not seen,somewhere,2310,64,difficult to read,12-04-2019 03:05
356,1.0,288.0,True,Non-designer,2,recognition,13,sansforgetica,needs,word,Sure seen,0.0,not seen,needed,3424,64,difficult to read,12-04-2019 03:05
357,1.0,288.0,True,Non-designer,2,recognition,14,sansforgetica,learning,word,Probably not seen,1.0,not seen,learn,2056,64,difficult to read,12-04-2019 03:05
358,1.0,288.0,True,Non-designer,2,recognition,15,sansforgetica,people,word,Probably not seen,1.0,not seen,peace,1683,64,difficult to read,12-04-2019 03:05
359,1.0,288.0,True,Non-designer,2,recognition,16,sansforgetica,undertaned,non-word,Sure seen,1.0,seen,undertaned,2391,64,difficult to read,12-04-2019 03:05
360,1.0,360.0,True,Non-designer,1,lexical,1,arial,demething,non-word,Probably non-word,1.0,,,3979,50,very easy to read,12-04-2019 00:22
361,1.0,360.0,True,Non-designer,1,lexical,2,arial,meanspheted,non-word,Probably non-word,1.0,,,4043,50,very easy to read,12-04-2019 00:22
362,1.0,360.0,True,Non-designer,1,lexical,3,arial,start,word,Sure word,1.0,,,2323,50,very easy to read,12-04-2019 00:22
363,1.0,360.0,True,Non-designer,1,lexical,4,arial,revernment,non-word,Probably word,0.0,,,3685,50,very easy to read,12-04-2019 00:22
364,1.0,360.0,True,Non-designer,1,lexical,5,arial,legal,word,Sure word,1.0,,,2229,50,very easy to read,12-04-2019 00:22
365,1.0,360.0,True,Non-designer,1,lexical,6,arial,means,word,Sure word,1.0,,,2583,50,very easy to read,12-04-2019 00:22
366,1.0,360.0,True,Non-designer,1,lexical,7,arial,emposprism,non-word,Probably word,0.0,,,4515,50,very easy to read,12-04-2019 00:22
367,1.0,360.0,True,Non-designer,1,lexical,8,arial,holding,word,Sure word,1.0,,,2105,50,very easy to read,12-04-2019 00:22
368,1.0,360.0,True,Non-designer,1,lexical,9,arial,cerfested,non-word,Sure non-word,1.0,,,2776,50,very easy to read,12-04-2019 00:22
369,1.0,360.0,True,Non-designer,1,lexical,10,arial,spite,word,Sure word,1.0,,,2191,50,very easy to read,12-04-2019 00:22
370,1.0,360.0,True,Non-designer,1,lexical,11,arial,training,word,Sure word,1.0,,,1637,50,very easy to read,12-04-2019 00:22
371,1.0,360.0,True,Non-designer,1,lexical,12,arial,speed,word,Sure word,1.0,,,1783,50,very easy to read,12-04-2019 00:22
372,1.0,360.0,True,Non-designer,1,lexical,13,arial,gensibility,non-word,Probably non-word,1.0,,,3476,50,very easy to read,12-04-2019 00:22
373,1.0,360.0,True,Non-designer,1,lexical,14,arial,western,word,Sure word,1.0,,,1846,50,very easy to read,12-04-2019 00:22
374,1.0,360.0,True,Non-designer,1,lexical,15,arial,respantive,non-word,Probably word,0.0,,,2168,50,very easy to read,12-04-2019 00:22
375,1.0,360.0,True,Non-designer,1,lexical,16,arial,danger,word,Sure word,1.0,,,1614,50,very easy to read,12-04-2019 00:22
376,1.0,360.0,True,Non-designer,1,lexical,17,arial,littletely,non-word,Sure non-word,1.0,,,3925,50,very easy to read,12-04-2019 00:22
377,1.0,360.0,True,Non-designer,1,lexical,18,arial,nobody,word,Sure word,1.0,,,1961,50,very easy to read,12-04-2019 00:22
378,1.0,360.0,True,Non-designer,1,lexical,19,arial,addicaches,non-word,Probably non-word,1.0,,,5068,50,very easy to read,12-04-2019 00:22
379,1.0,360.0,True,Non-designer,1,lexical,20,arial,visher,non-word,Sure non-word,1.0,,,1896,50,very easy to read,12-04-2019 00:22
380,1.0,360.0,True,Non-designer,1,recognition,1,arial,means,word,Sure seen,1.0,seen,means,2716,50,very easy to read,12-04-2019 00:22
381,1.0,360.0,True,Non-designer,1,recognition,2,arial,vissily,non-word,Sure seen,0.0,not seen,visher,1982,50,very easy to read,12-04-2019 00:22
382,1.0,360.0,True,Non-designer,1,recognition,3,arial,cerving,non-word,Sure not seen,1.0,not seen,cerfested,4906,50,very easy to read,12-04-2019 00:22
383,1.0,360.0,True,Non-designer,1,recognition,4,arial,riddly,non-word,Sure not seen,1.0,not seen,revernment,2466,50,very easy to read,12-04-2019 00:22
384,1.0,360.0,True,Non-designer,1,recognition,5,arial,danger,word,Sure seen,1.0,seen,danger,2111,50,very easy to read,12-04-2019 00:22
385,1.0,360.0,True,Non-designer,1,recognition,6,arial,emposprism,non-word,Sure seen,1.0,seen,emposprism,2433,50,very easy to read,12-04-2019 00:22
386,1.0,360.0,True,Non-designer,1,recognition,7,arial,holiday,word,Sure not seen,1.0,not seen,holding,2589,50,very easy to read,12-04-2019 00:22
387,1.0,360.0,True,Non-designer,1,recognition,8,arial,legal,word,Sure seen,1.0,seen,legal,2448,50,very easy to read,12-04-2019 00:22
388,1.0,360.0,True,Non-designer,1,recognition,9,arial,addicaches,non-word,Sure seen,1.0,seen,addicaches,5152,50,very easy to read,12-04-2019 00:22
389,1.0,360.0,True,Non-designer,1,recognition,10,arial,travel,word,Probably not seen,1.0,not seen,training,4541,50,very easy to read,12-04-2019 00:22
390,1.0,360.0,True,Non-designer,1,recognition,11,arial,littletely,non-word,Sure seen,1.0,seen,littletely,2266,50,very easy to read,12-04-2019 00:22
391,1.0,360.0,True,Non-designer,1,recognition,12,arial,meanspheted,non-word,Sure seen,1.0,seen,meanspheted,2390,50,very easy to read,12-04-2019 00:22
392,1.0,360.0,True,Non-designer,1,recognition,13,arial,spoke,word,Sure not seen,1.0,not seen,spite,2331,50,very easy to read,12-04-2019 00:22
393,1.0,360.0,True,Non-designer,1,recognition,14,arial,demillining,non-word,Sure not seen,1.0,not seen,demething,2518,50,very easy to read,12-04-2019 00:22
394,1.0,360.0,True,Non-designer,1,recognition,15,arial,nodded,word,Sure not seen,1.0,not seen,nobody,2400,50,very easy to read,12-04-2019 00:22
395,1.0,360.0,True,Non-designer,1,recognition,16,arial,western,word,Sure seen,1.0,seen,western,1961,50,very easy to read,12-04-2019 00:22
396,1.0,360.0,True,Non-designer,2,lexical,1,sansforgetica,verved,non-word,Probably word,0.0,,,6915,50,easy to read,12-04-2019 00:22
397,1.0,360.0,True,Non-designer,2,lexical,2,sansforgetica,schoon,non-word,Probably word,0.0,,,5061,50,easy to read,12-04-2019 00:22
398,1.0,360.0,True,Non-designer,2,lexical,3,sansforgetica,desterly,non-word,Probably non-word,1.0,,,3679,50,easy to read,12-04-2019 00:22
399,1.0,360.0,True,Non-designer,2,lexical,4,sansforgetica,discovered,word,Sure word,1.0,,,1931,50,easy to read,12-04-2019 00:22
400,1.0,360.0,True,Non-designer,2,lexical,5,sansforgetica,saying,word,Sure word,1.0,,,2425,50,easy to read,12-04-2019 00:22
401,1.0,360.0,True,Non-designer,2,lexical,6,sansforgetica,formed,word,Sure word,1.0,,,1896,50,easy to read,12-04-2019 00:22
402,1.0,360.0,True,Non-designer,2,lexical,7,sansforgetica,follow,word,Sure word,1.0,,,1327,50,easy to read,12-04-2019 00:22
403,1.0,360.0,True,Non-designer,2,lexical,8,sansforgetica,recrophouts,non-word,Probably non-word,1.0,,,4622,50,easy to read,12-04-2019 00:22
404,1.0,360.0,True,Non-designer,2,lexical,9,sansforgetica,conscioning,non-word,Sure word,0.0,,,3044,50,easy to read,12-04-2019 00:22
405,1.0,360.0,True,Non-designer,2,lexical,10,sansforgetica,prevent,word,Sure word,1.0,,,1471,50,easy to read,12-04-2019 00:22
406,1.0,360.0,True,Non-designer,2,lexical,11,sansforgetica,worst,word,Sure word,1.0,,,1323,50,easy to read,12-04-2019 00:22
407,1.0,360.0,True,Non-designer,2,lexical,12,sansforgetica,principle,word,Sure word,1.0,,,1443,50,easy to read,12-04-2019 00:22
408,1.0,360.0,True,Non-designer,2,lexical,13,sansforgetica,begar,non-word,Sure word,0.0,,,1415,50,easy to read,12-04-2019 00:22
409,1.0,360.0,True,Non-designer,2,lexical,14,sansforgetica,large,word,Sure word,1.0,,,1331,50,easy to read,12-04-2019 00:22
410,1.0,360.0,True,Non-designer,2,lexical,15,sansforgetica,guatiammer,non-word,Sure non-word,1.0,,,4664,50,easy to read,12-04-2019 00:22
411,1.0,360.0,True,Non-designer,2,lexical,16,sansforgetica,overicted,non-word,Probably non-word,1.0,,,2701,50,easy to read,12-04-2019 00:22
412,1.0,360.0,True,Non-designer,2,lexical,17,sansforgetica,could,word,Sure word,1.0,,,1937,50,easy to read,12-04-2019 00:22
413,1.0,360.0,True,Non-designer,2,lexical,18,sansforgetica,nodief,non-word,Sure non-word,1.0,,,3555,50,easy to read,12-04-2019 00:22
414,1.0,360.0,True,Non-designer,2,lexical,19,sansforgetica,grown,word,Sure word,1.0,,,1942,50,easy to read,12-04-2019 00:22
415,1.0,360.0,True,Non-designer,2,lexical,20,sansforgetica,gradequate,non-word,Probably non-word,1.0,,,2919,50,easy to read,12-04-2019 00:22
416,1.0,360.0,True,Non-designer,2,recognition,1,sansforgetica,verved,non-word,Sure seen,1.0,seen,verved,2213,50,easy to read,12-04-2019 00:22
417,1.0,360.0,True,Non-designer,2,recognition,2,sansforgetica,overicted,non-word,Sure seen,1.0,seen,overicted,2648,50,easy to read,12-04-2019 00:22
418,1.0,360.0,True,Non-designer,2,recognition,3,sansforgetica,nodief,non-word,Sure seen,1.0,seen,nodief,2030,50,easy to read,12-04-2019 00:22
419,1.0,360.0,True,Non-designer,2,recognition,4,sansforgetica,deterienth,non-word,Sure not seen,1.0,not seen,desterly,5362,50,easy to read,12-04-2019 00:22
420,1.0,360.0,True,Non-designer,2,recognition,5,sansforgetica,worth,word,Sure seen,0.0,not seen,worst,2687,50,easy to read,12-04-2019 00:22
421,1.0,360.0,True,Non-designer,2,recognition,6,sansforgetica,rectined,non-word,Sure not seen,1.0,not seen,recrophouts,2874,50,easy to read,12-04-2019 00:22
422,1.0,360.0,True,Non-designer,2,recognition,7,sansforgetica,grandials,non-word,Sure not seen,1.0,not seen,gradequate,2285,50,easy to read,12-04-2019 00:22
423,1.0,360.0,True,Non-designer,2,recognition,8,sansforgetica,council,word,Sure not seen,1.0,not seen,could,1806,50,easy to read,12-04-2019 00:22
424,1.0,360.0,True,Non-designer,2,recognition,9,sansforgetica,formed,word,Sure seen,1.0,seen,formed,1951,50,easy to read,12-04-2019 00:22
425,1.0,360.0,True,Non-designer,2,recognition,10,sansforgetica,beginness,non-word,Sure not seen,1.0,not seen,begar,3295,50,easy to read,12-04-2019 00:22
426,1.0,360.0,True,Non-designer,2,recognition,11,sansforgetica,largely,word,Probably not seen,1.0,not seen,large,3130,50,easy to read,12-04-2019 00:22
427,1.0,360.0,True,Non-designer,2,recognition,12,sansforgetica,saying,word,Probably not seen,0.0,seen,saying,2135,50,easy to read,12-04-2019 00:22
428,1.0,360.0,True,Non-designer,2,recognition,13,sansforgetica,principle,word,Sure seen,1.0,seen,principle,2343,50,easy to read,12-04-2019 00:22
429,1.0,360.0,True,Non-designer,2,recognition,14,sansforgetica,guatiammer,non-word,Sure seen,1.0,seen,guatiammer,2684,50,easy to read,12-04-2019 00:22
430,1.0,360.0,True,Non-designer,2,recognition,15,sansforgetica,discovered,word,Sure seen,1.0,seen,discovered,2117,50,easy to read,12-04-2019 00:22
431,1.0,360.0,True,Non-designer,2,recognition,16,sansforgetica,previous,word,Probably not seen,1.0,not seen,prevent,4652,50,easy to read,12-04-2019 00:22
432,1.0,432.0,True,Non-designer,1,lexical,1,sansforgetica,smell,word,Sure word,1.0,,,7025,64,easy to read,12-04-2019 00:11
433,1.0,432.0,True,Non-designer,1,lexical,2,sansforgetica,compared,word,Sure word,1.0,,,3724,64,easy to read,12-04-2019 00:11
434,1.0,432.0,True,Non-designer,1,lexical,3,sansforgetica,within,word,Sure word,1.0,,,3538,64,easy to read,12-04-2019 00:11
435,1.0,432.0,True,Non-designer,1,lexical,4,sansforgetica,exerional,non-word,Probably non-word,1.0,,,13482,64,easy to read,12-04-2019 00:11
436,1.0,432.0,True,Non-designer,1,lexical,5,sansforgetica,history,word,Sure word,1.0,,,2833,64,easy to read,12-04-2019 00:11
437,1.0,432.0,True,Non-designer,1,lexical,6,sansforgetica,bengely,non-word,Sure non-word,1.0,,,7798,64,easy to read,12-04-2019 00:11
438,1.0,432.0,True,Non-designer,1,lexical,7,sansforgetica,orienuation,non-word,Probably word,0.0,,,33325,64,easy to read,12-04-2019 00:11
439,1.0,432.0,True,Non-designer,1,lexical,8,sansforgetica,western,word,Sure word,1.0,,,3679,64,easy to read,12-04-2019 00:11
440,1.0,432.0,True,Non-designer,1,lexical,9,sansforgetica,muscles,word,Sure word,1.0,,,3315,64,easy to read,12-04-2019 00:11
441,1.0,432.0,True,Non-designer,1,lexical,10,sansforgetica,placed,word,Sure word,1.0,,,2171,64,easy to read,12-04-2019 00:11
442,1.0,432.0,True,Non-designer,1,lexical,11,sansforgetica,neeld,non-word,Sure non-word,1.0,,,8817,64,easy to read,12-04-2019 00:11
443,1.0,432.0,True,Non-designer,1,lexical,12,sansforgetica,principle,word,Sure word,1.0,,,4083,64,easy to read,12-04-2019 00:11
444,1.0,432.0,True,Non-designer,1,lexical,13,sansforgetica,winnot,non-word,Sure non-word,1.0,,,9332,64,easy to read,12-04-2019 00:11
445,1.0,432.0,True,Non-designer,1,lexical,14,sansforgetica,demething,non-word,Probably non-word,1.0,,,13325,64,easy to read,12-04-2019 00:11
446,1.0,432.0,True,Non-designer,1,lexical,15,sansforgetica,hopulatute,non-word,Probably non-word,1.0,,,14433,64,easy to read,12-04-2019 00:11
447,1.0,432.0,True,Non-designer,1,lexical,16,sansforgetica,motter,non-word,Sure non-word,1.0,,,9741,64,easy to read,12-04-2019 00:11
448,1.0,432.0,True,Non-designer,1,lexical,17,sansforgetica,incogering,non-word,Probably non-word,1.0,,,9960,64,easy to read,12-04-2019 00:11
449,1.0,432.0,True,Non-designer,1,lexical,18,sansforgetica,spirit,word,Sure word,1.0,,,2861,64,easy to read,12-04-2019 00:11
450,1.0,432.0,True,Non-designer,1,lexical,19,sansforgetica,perietail,non-word,Probably non-word,1.0,,,16191,64,easy to read,12-04-2019 00:11
451,1.0,432.0,True,Non-designer,1,lexical,20,sansforgetica,purpose,word,Sure word,1.0,,,3045,64,easy to read,12-04-2019 00:11
452,1.0,432.0,True,Non-designer,1,recognition,1,sansforgetica,exisonent,non-word,Sure not seen,1.0,not seen,exerional,11150,64,easy to read,12-04-2019 00:11
453,1.0,432.0,True,Non-designer,1,recognition,2,sansforgetica,demillining,non-word,Sure not seen,1.0,not seen,demething,6556,64,easy to read,12-04-2019 00:11
454,1.0,432.0,True,Non-designer,1,recognition,3,sansforgetica,bettems,non-word,Sure not seen,1.0,not seen,bengely,6177,64,easy to read,12-04-2019 00:11
455,1.0,432.0,True,Non-designer,1,recognition,4,sansforgetica,principle,word,Sure seen,1.0,seen,principle,3421,64,easy to read,12-04-2019 00:11
456,1.0,432.0,True,Non-designer,1,recognition,5,sansforgetica,perietail,non-word,Sure seen,1.0,seen,perietail,2739,64,easy to read,12-04-2019 00:11
457,1.0,432.0,True,Non-designer,1,recognition,6,sansforgetica,moundays,non-word,Sure not seen,1.0,not seen,motter,4172,64,easy to read,12-04-2019 00:11
458,1.0,432.0,True,Non-designer,1,recognition,7,sansforgetica,competition,word,Sure not seen,1.0,not seen,compared,3722,64,easy to read,12-04-2019 00:11
459,1.0,432.0,True,Non-designer,1,recognition,8,sansforgetica,within,word,Sure seen,1.0,seen,within,3411,64,easy to read,12-04-2019 00:11
460,1.0,432.0,True,Non-designer,1,recognition,9,sansforgetica,winnot,non-word,Sure seen,1.0,seen,winnot,2501,64,easy to read,12-04-2019 00:11
461,1.0,432.0,True,Non-designer,1,recognition,10,sansforgetica,music,word,Sure not seen,1.0,not seen,muscles,2423,64,easy to read,12-04-2019 00:11
462,1.0,432.0,True,Non-designer,1,recognition,11,sansforgetica,purpose,word,Sure seen,1.0,seen,purpose,2176,64,easy to read,12-04-2019 00:11
463,1.0,432.0,True,Non-designer,1,recognition,12,sansforgetica,hopulatute,non-word,Sure seen,1.0,seen,hopulatute,2961,64,easy to read,12-04-2019 00:11
464,1.0,432.0,True,Non-designer,1,recognition,13,sansforgetica,smiled,word,Sure not seen,1.0,not seen,smell,2950,64,easy to read,12-04-2019 00:11
465,1.0,432.0,True,Non-designer,1,recognition,14,sansforgetica,incogering,non-word,Sure seen,1.0,seen,incogering,2459,64,easy to read,12-04-2019 00:11
466,1.0,432.0,True,Non-designer,1,recognition,15,sansforgetica,whatever,word,Sure not seen,1.0,not seen,western,2469,64,easy to read,12-04-2019 00:11
467,1.0,432.0,True,Non-designer,1,recognition,16,sansforgetica,spirit,word,Sure seen,1.0,seen,spirit,2038,64,easy to read,12-04-2019 00:11
468,1.0,432.0,True,Non-designer,2,lexical,1,arial,clese,non-word,Sure non-word,1.0,,,9705,60,very easy to read,12-04-2019 00:11
469,1.0,432.0,True,Non-designer,2,lexical,2,arial,prought,non-word,Sure non-word,1.0,,,5762,60,very easy to read,12-04-2019 00:11
470,1.0,432.0,True,Non-designer,2,lexical,3,arial,hovelently,non-word,Sure non-word,1.0,,,5994,60,very easy to read,12-04-2019 00:11
471,1.0,432.0,True,Non-designer,2,lexical,4,arial,success,word,Sure word,1.0,,,3299,60,very easy to read,12-04-2019 00:11
472,1.0,432.0,True,Non-designer,2,lexical,5,arial,later,word,Sure word,1.0,,,1933,60,very easy to read,12-04-2019 00:11
473,1.0,432.0,True,Non-designer,2,lexical,6,arial,warket,non-word,Sure non-word,1.0,,,2291,60,very easy to read,12-04-2019 00:11
474,1.0,432.0,True,Non-designer,2,lexical,7,arial,forms,word,Sure word,1.0,,,2152,60,very easy to read,12-04-2019 00:11
475,1.0,432.0,True,Non-designer,2,lexical,8,arial,pointed,word,Sure word,1.0,,,2015,60,very easy to read,12-04-2019 00:11
476,1.0,432.0,True,Non-designer,2,lexical,9,arial,failed,word,Sure word,1.0,,,1709,60,very easy to read,12-04-2019 00:11
477,1.0,432.0,True,Non-designer,2,lexical,10,arial,could,word,Sure word,1.0,,,1972,60,very easy to read,12-04-2019 00:11
478,1.0,432.0,True,Non-designer,2,lexical,11,arial,island,word,Sure word,1.0,,,1525,60,very easy to read,12-04-2019 00:11
479,1.0,432.0,True,Non-designer,2,lexical,12,arial,council,word,Sure word,1.0,,,2982,60,very easy to read,12-04-2019 00:11
480,1.0,432.0,True,Non-designer,2,lexical,13,arial,poverty,word,Sure word,1.0,,,1878,60,very easy to read,12-04-2019 00:11
481,1.0,432.0,True,Non-designer,2,lexical,14,arial,thount,non-word,Sure non-word,1.0,,,3389,60,very easy to read,12-04-2019 00:11
482,1.0,432.0,True,Non-designer,2,lexical,15,arial,asserworly,non-word,Sure non-word,1.0,,,6128,60,very easy to read,12-04-2019 00:11
483,1.0,432.0,True,Non-designer,2,lexical,16,arial,thips,non-word,Sure non-word,1.0,,,3897,60,very easy to read,12-04-2019 00:11
484,1.0,432.0,True,Non-designer,2,lexical,17,arial,opholution,non-word,Probably non-word,1.0,,,7059,60,very easy to read,12-04-2019 00:11
485,1.0,432.0,True,Non-designer,2,lexical,18,arial,producties,non-word,Sure non-word,1.0,,,6956,60,very easy to read,12-04-2019 00:11
486,1.0,432.0,True,Non-designer,2,lexical,19,arial,directly,word,Sure word,1.0,,,4087,60,very easy to read,12-04-2019 00:11
487,1.0,432.0,True,Non-designer,2,lexical,20,arial,chaped,non-word,Sure non-word,1.0,,,5523,60,very easy to read,12-04-2019 00:11
488,1.0,432.0,True,Non-designer,2,recognition,1,arial,issue,word,Sure not seen,1.0,not seen,island,4106,60,very easy to read,12-04-2019 00:11
489,1.0,432.0,True,Non-designer,2,recognition,2,arial,prought,non-word,Sure seen,1.0,seen,prought,2295,60,very easy to read,12-04-2019 00:11
490,1.0,432.0,True,Non-designer,2,recognition,3,arial,thouratute,non-word,Sure not seen,1.0,not seen,thount,2408,60,very easy to read,12-04-2019 00:11
491,1.0,432.0,True,Non-designer,2,recognition,4,arial,humberical,non-word,Sure not seen,1.0,not seen,hovelently,2310,60,very easy to read,12-04-2019 00:11
492,1.0,432.0,True,Non-designer,2,recognition,5,arial,poverty,word,Sure seen,1.0,seen,poverty,1978,60,very easy to read,12-04-2019 00:11
493,1.0,432.0,True,Non-designer,2,recognition,6,arial,forms,word,Probably seen,1.0,seen,forms,6400,60,very easy to read,12-04-2019 00:11
494,1.0,432.0,True,Non-designer,2,recognition,7,arial,producties,non-word,Sure seen,1.0,seen,producties,3158,60,very easy to read,12-04-2019 00:11
495,1.0,432.0,True,Non-designer,2,recognition,8,arial,points,word,Sure not seen,1.0,not seen,pointed,19258,60,very easy to read,12-04-2019 00:11
496,1.0,432.0,True,Non-designer,2,recognition,9,arial,success,word,Sure seen,1.0,seen,success,2028,60,very easy to read,12-04-2019 00:11
497,1.0,432.0,True,Non-designer,2,recognition,10,arial,opholution,non-word,Sure seen,1.0,seen,opholution,2586,60,very easy to read,12-04-2019 00:11
498,1.0,432.0,True,Non-designer,2,recognition,11,arial,council,word,Sure seen,1.0,seen,council,1669,60,very easy to read,12-04-2019 00:11
499,1.0,432.0,True,Non-designer,2,recognition,12,arial,failure,word,Sure not seen,1.0,not seen,failed,6191,60,very easy to read,12-04-2019 00:11
500,1.0,432.0,True,Non-designer,2,recognition,13,arial,director,word,Sure not seen,1.0,not seen,directly,5251,60,very easy to read,12-04-2019 00:11
501,1.0,432.0,True,Non-designer,2,recognition,14,arial,assinquent,non-word,Sure not seen,1.0,not seen,asserworly,3464,60,very easy to read,12-04-2019 00:11
502,1.0,432.0,True,Non-designer,2,recognition,15,arial,clese,non-word,Sure seen,1.0,seen,clese,2410,60,very easy to read,12-04-2019 00:11
503,1.0,432.0,True,Non-designer,2,recognition,16,arial,chares,non-word,Sure not seen,1.0,not seen,chaped,2807,60,very easy to read,12-04-2019 00:11
504,1.0,504.0,True,Non-designer,1,lexical,1,arial,blace,non-word,Sure word,0.0,,,5183,31,very easy to read,12-04-2019 00:06
505,1.0,504.0,True,Non-designer,1,lexical,2,arial,imagine,word,Sure word,1.0,,,1984,31,very easy to read,12-04-2019 00:06
506,1.0,504.0,True,Non-designer,1,lexical,3,arial,whatever,word,Sure word,1.0,,,1794,31,very easy to read,12-04-2019 00:06
507,1.0,504.0,True,Non-designer,1,lexical,4,arial,occational,non-word,Sure non-word,1.0,,,4826,31,very easy to read,12-04-2019 00:06
508,1.0,504.0,True,Non-designer,1,lexical,5,arial,exuden,non-word,Sure non-word,1.0,,,3262,31,very easy to read,12-04-2019 00:06
509,1.0,504.0,True,Non-designer,1,lexical,6,arial,rising,word,Sure word,1.0,,,3619,31,very easy to read,12-04-2019 00:06
510,1.0,504.0,True,Non-designer,1,lexical,7,arial,doctor,word,Sure word,1.0,,,2019,31,very easy to read,12-04-2019 00:06
511,1.0,504.0,True,Non-designer,1,lexical,8,arial,muscles,word,Sure word,1.0,,,1762,31,very easy to read,12-04-2019 00:06
512,1.0,504.0,True,Non-designer,1,lexical,9,arial,advanced,word,Sure word,1.0,,,2719,31,very easy to read,12-04-2019 00:06
513,1.0,504.0,True,Non-designer,1,lexical,10,arial,considere,non-word,Sure non-word,1.0,,,3283,31,very easy to read,12-04-2019 00:06
514,1.0,504.0,True,Non-designer,1,lexical,11,arial,villsite,non-word,Probably word,0.0,,,3954,31,very easy to read,12-04-2019 00:06
515,1.0,504.0,True,Non-designer,1,lexical,12,arial,littor,non-word,Sure word,0.0,,,7853,31,very easy to read,12-04-2019 00:06
516,1.0,504.0,True,Non-designer,1,lexical,13,arial,chares,non-word,Probably word,0.0,,,6092,31,very easy to read,12-04-2019 00:06
517,1.0,504.0,True,Non-designer,1,lexical,14,arial,pigeboy,non-word,Probably non-word,1.0,,,6490,31,very easy to read,12-04-2019 00:06
518,1.0,504.0,True,Non-designer,1,lexical,15,arial,sounds,word,Sure word,1.0,,,2097,31,very easy to read,12-04-2019 00:06
519,1.0,504.0,True,Non-designer,1,lexical,16,arial,schoon,non-word,Sure non-word,1.0,,,3848,31,very easy to read,12-04-2019 00:06
520,1.0,504.0,True,Non-designer,1,lexical,17,arial,schools,word,Sure word,1.0,,,3607,31,very easy to read,12-04-2019 00:06
521,1.0,504.0,True,Non-designer,1,lexical,18,arial,previtment,non-word,Probably word,0.0,,,10274,31,very easy to read,12-04-2019 00:06
522,1.0,504.0,True,Non-designer,1,lexical,19,arial,taking,word,Sure word,1.0,,,2524,31,very easy to read,12-04-2019 00:06
523,1.0,504.0,True,Non-designer,1,lexical,20,arial,closed,word,Sure word,1.0,,,1699,31,very easy to read,12-04-2019 00:06
524,1.0,504.0,True,Non-designer,1,recognition,1,arial,scientable,non-word,Sure not seen,1.0,not seen,schoon,4846,31,very easy to read,12-04-2019 00:06
525,1.0,504.0,True,Non-designer,1,recognition,2,arial,whatever,word,Sure seen,1.0,seen,whatever,3005,31,very easy to read,12-04-2019 00:06
526,1.0,504.0,True,Non-designer,1,recognition,3,arial,immediately,word,Sure not seen,1.0,not seen,imagine,7211,31,very easy to read,12-04-2019 00:06
527,1.0,504.0,True,Non-designer,1,recognition,4,arial,occational,non-word,Sure seen,1.0,seen,occational,3574,31,very easy to read,12-04-2019 00:06
528,1.0,504.0,True,Non-designer,1,recognition,5,arial,pillern,non-word,Sure not seen,1.0,not seen,pigeboy,5665,31,very easy to read,12-04-2019 00:06
529,1.0,504.0,True,Non-designer,1,recognition,6,arial,chason,non-word,Probably seen,0.0,not seen,chares,4849,31,very easy to read,12-04-2019 00:06
530,1.0,504.0,True,Non-designer,1,recognition,7,arial,villsite,non-word,Sure seen,1.0,seen,villsite,3445,31,very easy to read,12-04-2019 00:06
531,1.0,504.0,True,Non-designer,1,recognition,8,arial,muscles,word,Sure seen,1.0,seen,muscles,2123,31,very easy to read,12-04-2019 00:06
532,1.0,504.0,True,Non-designer,1,recognition,9,arial,scientific,word,Sure seen,0.0,not seen,schools,4171,31,very easy to read,12-04-2019 00:06
533,1.0,504.0,True,Non-designer,1,recognition,10,arial,advantage,word,Sure seen,0.0,not seen,advanced,2002,31,very easy to read,12-04-2019 00:06
534,1.0,504.0,True,Non-designer,1,recognition,11,arial,rising,word,Sure seen,1.0,seen,rising,1798,31,very easy to read,12-04-2019 00:06
535,1.0,504.0,True,Non-designer,1,recognition,12,arial,previtment,non-word,Sure seen,1.0,seen,previtment,1948,31,very easy to read,12-04-2019 00:06
536,1.0,504.0,True,Non-designer,1,recognition,13,arial,consiously,non-word,Sure not seen,1.0,not seen,considere,7564,31,very easy to read,12-04-2019 00:06
537,1.0,504.0,True,Non-designer,1,recognition,14,arial,doctor,word,Sure seen,1.0,seen,doctor,4104,31,very easy to read,12-04-2019 00:06
538,1.0,504.0,True,Non-designer,1,recognition,15,arial,exuden,non-word,Sure seen,1.0,seen,exuden,2671,31,very easy to read,12-04-2019 00:06
539,1.0,504.0,True,Non-designer,1,recognition,16,arial,closely,word,Sure not seen,1.0,not seen,closed,5777,31,very easy to read,12-04-2019 00:06
540,1.0,504.0,True,Non-designer,2,lexical,1,sansforgetica,ready,word,Sure word,1.0,,,5876,39,easy to read,12-04-2019 00:06
541,1.0,504.0,True,Non-designer,2,lexical,2,sansforgetica,train,word,Sure word,1.0,,,2057,39,easy to read,12-04-2019 00:06
542,1.0,504.0,True,Non-designer,2,lexical,3,sansforgetica,refengement,non-word,Probably non-word,1.0,,,7215,39,easy to read,12-04-2019 00:06
543,1.0,504.0,True,Non-designer,2,lexical,4,sansforgetica,assumendent,non-word,Sure non-word,1.0,,,3925,39,easy to read,12-04-2019 00:06
544,1.0,504.0,True,Non-designer,2,lexical,5,sansforgetica,unwiliate,non-word,Sure non-word,1.0,,,4401,39,easy to read,12-04-2019 00:06
545,1.0,504.0,True,Non-designer,2,lexical,6,sansforgetica,morence,non-word,Probably word,0.0,,,5010,39,easy to read,12-04-2019 00:06
546,1.0,504.0,True,Non-designer,2,lexical,7,sansforgetica,pertunaling,non-word,Probably word,0.0,,,6015,39,easy to read,12-04-2019 00:06
547,1.0,504.0,True,Non-designer,2,lexical,8,sansforgetica,power,word,Sure word,1.0,,,2092,39,easy to read,12-04-2019 00:06
548,1.0,504.0,True,Non-designer,2,lexical,9,sansforgetica,behaviour,word,Sure word,1.0,,,2825,39,easy to read,12-04-2019 00:06
549,1.0,504.0,True,Non-designer,2,lexical,10,sansforgetica,impreasive,non-word,Sure non-word,1.0,,,3408,39,easy to read,12-04-2019 00:06
550,1.0,504.0,True,Non-designer,2,lexical,11,sansforgetica,increasing,word,Sure word,1.0,,,2644,39,easy to read,12-04-2019 00:06
551,1.0,504.0,True,Non-designer,2,lexical,12,sansforgetica,genernoon,non-word,Sure non-word,1.0,,,5507,39,easy to read,12-04-2019 00:06
552,1.0,504.0,True,Non-designer,2,lexical,13,sansforgetica,elanciences,non-word,Probably word,0.0,,,4990,39,easy to read,12-04-2019 00:06
553,1.0,504.0,True,Non-designer,2,lexical,14,sansforgetica,branch,word,Sure word,1.0,,,1695,39,easy to read,12-04-2019 00:06
554,1.0,504.0,True,Non-designer,2,lexical,15,sansforgetica,really,word,Sure word,1.0,,,1519,39,easy to read,12-04-2019 00:06
555,1.0,504.0,True,Non-designer,2,lexical,16,sansforgetica,suggesent,non-word,Sure non-word,1.0,,,3983,39,easy to read,12-04-2019 00:06
556,1.0,504.0,True,Non-designer,2,lexical,17,sansforgetica,particular,word,Sure word,1.0,,,2129,39,easy to read,12-04-2019 00:06
557,1.0,504.0,True,Non-designer,2,lexical,18,sansforgetica,wonderful,word,Sure word,1.0,,,2372,39,easy to read,12-04-2019 00:06
558,1.0,504.0,True,Non-designer,2,lexical,19,sansforgetica,arting,non-word,Probably non-word,1.0,,,4417,39,easy to read,12-04-2019 00:06
559,1.0,504.0,True,Non-designer,2,lexical,20,sansforgetica,miles,word,Sure word,1.0,,,2051,39,easy to read,12-04-2019 00:06
560,1.0,504.0,True,Non-designer,2,recognition,1,sansforgetica,elanciences,non-word,Sure seen,1.0,seen,elanciences,3647,39,easy to read,12-04-2019 00:06
561,1.0,504.0,True,Non-designer,2,recognition,2,sansforgetica,parties,word,Sure not seen,1.0,not seen,particular,3220,39,easy to read,12-04-2019 00:06
562,1.0,504.0,True,Non-designer,2,recognition,3,sansforgetica,miles,word,Sure not seen,0.0,seen,miles,2140,39,easy to read,12-04-2019 00:06
563,1.0,504.0,True,Non-designer,2,recognition,4,sansforgetica,unwitituted,non-word,Sure not seen,1.0,not seen,unwiliate,2221,39,easy to read,12-04-2019 00:06
564,1.0,504.0,True,Non-designer,2,recognition,5,sansforgetica,indeed,word,Sure not seen,1.0,not seen,increasing,1415,39,easy to read,12-04-2019 00:06
565,1.0,504.0,True,Non-designer,2,recognition,6,sansforgetica,genscists,non-word,Sure not seen,1.0,not seen,genernoon,2580,39,easy to read,12-04-2019 00:06
566,1.0,504.0,True,Non-designer,2,recognition,7,sansforgetica,morence,non-word,Sure seen,1.0,seen,morence,2775,39,easy to read,12-04-2019 00:06
567,1.0,504.0,True,Non-designer,2,recognition,8,sansforgetica,wonderful,word,Sure seen,1.0,seen,wonderful,2837,39,easy to read,12-04-2019 00:06
568,1.0,504.0,True,Non-designer,2,recognition,9,sansforgetica,bread,word,Sure not seen,1.0,not seen,branch,2378,39,easy to read,12-04-2019 00:06
569,1.0,504.0,True,Non-designer,2,recognition,10,sansforgetica,impreasive,non-word,Sure seen,1.0,seen,impreasive,4166,39,easy to read,12-04-2019 00:06
570,1.0,504.0,True,Non-designer,2,recognition,11,sansforgetica,pervice,non-word,Sure seen,0.0,not seen,pertunaling,2368,39,easy to read,12-04-2019 00:06
571,1.0,504.0,True,Non-designer,2,recognition,12,sansforgetica,train,word,Sure seen,1.0,seen,train,7969,39,easy to read,12-04-2019 00:06
572,1.0,504.0,True,Non-designer,2,recognition,13,sansforgetica,assumerater,non-word,Sure not seen,1.0,not seen,assumendent,4492,39,easy to read,12-04-2019 00:06
573,1.0,504.0,True,Non-designer,2,recognition,14,sansforgetica,powerful,word,Probably seen,0.0,not seen,power,2218,39,easy to read,12-04-2019 00:06
574,1.0,504.0,True,Non-designer,2,recognition,15,sansforgetica,refengement,non-word,Sure seen,1.0,seen,refengement,2322,39,easy to read,12-04-2019 00:06
575,1.0,504.0,True,Non-designer,2,recognition,16,sansforgetica,behaviour,word,Sure seen,1.0,seen,behaviour,1831,39,easy to read,12-04-2019 00:06
576,1.0,576.0,True,Letter designer,1,lexical,1,sansforgetica,faters,non-word,Probably non-word,1.0,,,5816,78,easy to read,11-04-2019 23:49
577,1.0,576.0,True,Letter designer,1,lexical,2,sansforgetica,calling,word,Sure word,1.0,,,2055,78,easy to read,11-04-2019 23:49
578,1.0,576.0,True,Letter designer,1,lexical,3,sansforgetica,gives,word,Sure word,1.0,,,1769,78,easy to read,11-04-2019 23:49
579,1.0,576.0,True,Letter designer,1,lexical,4,sansforgetica,approach,word,Sure word,1.0,,,2039,78,easy to read,11-04-2019 23:49
580,1.0,576.0,True,Letter designer,1,lexical,5,sansforgetica,nation,word,Sure word,1.0,,,2192,78,easy to read,11-04-2019 23:49
581,1.0,576.0,True,Letter designer,1,lexical,6,sansforgetica,discoverent,non-word,Probably non-word,1.0,,,3646,78,easy to read,11-04-2019 23:49
582,1.0,576.0,True,Letter designer,1,lexical,7,sansforgetica,least,word,Sure word,1.0,,,1876,78,easy to read,11-04-2019 23:49
583,1.0,576.0,True,Letter designer,1,lexical,8,sansforgetica,diverented,non-word,Probably non-word,1.0,,,5879,78,easy to read,11-04-2019 23:49
584,1.0,576.0,True,Letter designer,1,lexical,9,sansforgetica,minute,word,Sure word,1.0,,,2019,78,easy to read,11-04-2019 23:49
585,1.0,576.0,True,Letter designer,1,lexical,10,sansforgetica,entervished,non-word,Probably non-word,1.0,,,2829,78,easy to read,11-04-2019 23:49
586,1.0,576.0,True,Letter designer,1,lexical,11,sansforgetica,algeres,non-word,Probably non-word,1.0,,,5122,78,easy to read,11-04-2019 23:49
587,1.0,576.0,True,Letter designer,1,lexical,12,sansforgetica,opplanation,non-word,Probably non-word,1.0,,,3732,78,easy to read,11-04-2019 23:49
588,1.0,576.0,True,Letter designer,1,lexical,13,sansforgetica,expeantly,non-word,Probably non-word,1.0,,,5812,78,easy to read,11-04-2019 23:49
589,1.0,576.0,True,Letter designer,1,lexical,14,sansforgetica,opportunity,word,Sure word,1.0,,,2953,78,easy to read,11-04-2019 23:49
590,1.0,576.0,True,Letter designer,1,lexical,15,sansforgetica,forms,word,Sure word,1.0,,,1400,78,easy to read,11-04-2019 23:49
591,1.0,576.0,True,Letter designer,1,lexical,16,sansforgetica,popubligals,non-word,Sure non-word,1.0,,,2646,78,easy to read,11-04-2019 23:49
592,1.0,576.0,True,Letter designer,1,lexical,17,sansforgetica,demillining,non-word,Probably non-word,1.0,,,2412,78,easy to read,11-04-2019 23:49
593,1.0,576.0,True,Letter designer,1,lexical,18,sansforgetica,likely,word,Sure word,1.0,,,1611,78,easy to read,11-04-2019 23:49
594,1.0,576.0,True,Letter designer,1,lexical,19,sansforgetica,equipment,word,Sure word,1.0,,,1944,78,easy to read,11-04-2019 23:49
595,1.0,576.0,True,Letter designer,1,lexical,20,sansforgetica,starge,non-word,Probably word,0.0,,,2686,78,easy to read,11-04-2019 23:49
596,1.0,576.0,True,Letter designer,1,recognition,1,sansforgetica,nation,word,Sure seen,1.0,seen,nation,3227,78,easy to read,11-04-2019 23:49
597,1.0,576.0,True,Letter designer,1,recognition,2,sansforgetica,possecapped,non-word,Sure not seen,1.0,not seen,popubligals,2782,78,easy to read,11-04-2019 23:49
598,1.0,576.0,True,Letter designer,1,recognition,3,sansforgetica,appropriate,word,Probably not seen,1.0,not seen,approach,9513,78,easy to read,11-04-2019 23:49
599,1.0,576.0,True,Letter designer,1,recognition,4,sansforgetica,algeres,non-word,Sure seen,1.0,seen,algeres,1918,78,easy to read,11-04-2019 23:49
600,1.0,576.0,True,Letter designer,1,recognition,5,sansforgetica,faters,non-word,Sure seen,1.0,seen,faters,1485,78,easy to read,11-04-2019 23:49
601,1.0,576.0,True,Letter designer,1,recognition,6,sansforgetica,forms,word,Sure seen,1.0,seen,forms,1502,78,easy to read,11-04-2019 23:49
602,1.0,576.0,True,Letter designer,1,recognition,7,sansforgetica,denerstion,non-word,Sure not seen,1.0,not seen,demillining,2164,78,easy to read,11-04-2019 23:49
603,1.0,576.0,True,Letter designer,1,recognition,8,sansforgetica,model,word,Sure not seen,1.0,not seen,minute,1834,78,easy to read,11-04-2019 23:49
604,1.0,576.0,True,Letter designer,1,recognition,9,sansforgetica,least,word,Sure seen,1.0,seen,least,1645,78,easy to read,11-04-2019 23:49
605,1.0,576.0,True,Letter designer,1,recognition,10,sansforgetica,expeat,non-word,Sure not seen,1.0,not seen,expeantly,2056,78,easy to read,11-04-2019 23:49
606,1.0,576.0,True,Letter designer,1,recognition,11,sansforgetica,opposite,word,Probably seen,0.0,not seen,opportunity,2842,78,easy to read,11-04-2019 23:49
607,1.0,576.0,True,Letter designer,1,recognition,12,sansforgetica,entervished,non-word,Sure seen,1.0,seen,entervished,2826,78,easy to read,11-04-2019 23:49
608,1.0,576.0,True,Letter designer,1,recognition,13,sansforgetica,diverented,non-word,Sure seen,1.0,seen,diverented,1565,78,easy to read,11-04-2019 23:49
609,1.0,576.0,True,Letter designer,1,recognition,14,sansforgetica,giving,word,Sure not seen,1.0,not seen,gives,2965,78,easy to read,11-04-2019 23:49
610,1.0,576.0,True,Letter designer,1,recognition,15,sansforgetica,likely,word,Sure seen,1.0,seen,likely,1517,78,easy to read,11-04-2019 23:49
611,1.0,576.0,True,Letter designer,1,recognition,16,sansforgetica,discright,non-word,Sure not seen,1.0,not seen,discoverent,2053,78,easy to read,11-04-2019 23:49
612,1.0,576.0,True,Letter designer,2,lexical,1,arial,hontever,non-word,Probably non-word,1.0,,,10537,70,ok,11-04-2019 23:49
613,1.0,576.0,True,Letter designer,2,lexical,2,arial,within,word,Sure word,1.0,,,1561,70,ok,11-04-2019 23:49
614,1.0,576.0,True,Letter designer,2,lexical,3,arial,narrow,word,Sure word,1.0,,,1570,70,ok,11-04-2019 23:49
615,1.0,576.0,True,Letter designer,2,lexical,4,arial,briends,non-word,Probably word,0.0,,,3044,70,ok,11-04-2019 23:49
616,1.0,576.0,True,Letter designer,2,lexical,5,arial,silence,word,Sure word,1.0,,,1438,70,ok,11-04-2019 23:49
617,1.0,576.0,True,Letter designer,2,lexical,6,arial,concerity,non-word,Probably word,0.0,,,2312,70,ok,11-04-2019 23:49
618,1.0,576.0,True,Letter designer,2,lexical,7,arial,pillern,non-word,Probably word,0.0,,,2885,70,ok,11-04-2019 23:49
619,1.0,576.0,True,Letter designer,2,lexical,8,arial,protercial,non-word,Probably word,0.0,,,1733,70,ok,11-04-2019 23:49
620,1.0,576.0,True,Letter designer,2,lexical,9,arial,beausance,non-word,Probably word,0.0,,,3667,70,ok,11-04-2019 23:49
621,1.0,576.0,True,Letter designer,2,lexical,10,arial,activities,word,Sure word,1.0,,,3977,70,ok,11-04-2019 23:49
622,1.0,576.0,True,Letter designer,2,lexical,11,arial,holding,word,Sure word,1.0,,,1463,70,ok,11-04-2019 23:49
623,1.0,576.0,True,Letter designer,2,lexical,12,arial,surely,word,Sure word,1.0,,,1547,70,ok,11-04-2019 23:49
624,1.0,576.0,True,Letter designer,2,lexical,13,arial,thelf,non-word,Probably word,0.0,,,2817,70,ok,11-04-2019 23:49
625,1.0,576.0,True,Letter designer,2,lexical,14,arial,prefulsion,non-word,Probably word,0.0,,,1713,70,ok,11-04-2019 23:49
626,1.0,576.0,True,Letter designer,2,lexical,15,arial,moment,word,Sure word,1.0,,,1438,70,ok,11-04-2019 23:49
627,1.0,576.0,True,Letter designer,2,lexical,16,arial,western,word,Sure word,1.0,,,2452,70,ok,11-04-2019 23:49
628,1.0,576.0,True,Letter designer,2,lexical,17,arial,proferounds,non-word,Probably non-word,1.0,,,3070,70,ok,11-04-2019 23:49
629,1.0,576.0,True,Letter designer,2,lexical,18,arial,elanciences,non-word,Probably word,0.0,,,3022,70,ok,11-04-2019 23:49
630,1.0,576.0,True,Letter designer,2,lexical,19,arial,finding,word,Sure word,1.0,,,1339,70,ok,11-04-2019 23:49
631,1.0,576.0,True,Letter designer,2,lexical,20,arial,progress,word,Sure word,1.0,,,1266,70,ok,11-04-2019 23:49
632,1.0,576.0,True,Letter designer,2,recognition,1,arial,eleatome,non-word,Sure not seen,1.0,not seen,elanciences,4101,70,ok,11-04-2019 23:49
633,1.0,576.0,True,Letter designer,2,recognition,2,arial,surely,word,Sure not seen,0.0,seen,surely,4879,70,ok,11-04-2019 23:49
634,1.0,576.0,True,Letter designer,2,recognition,3,arial,profertion,non-word,Sure not seen,1.0,not seen,proferounds,2036,70,ok,11-04-2019 23:49
635,1.0,576.0,True,Letter designer,2,recognition,4,arial,beausance,non-word,Sure seen,1.0,seen,beausance,1945,70,ok,11-04-2019 23:49
636,1.0,576.0,True,Letter designer,2,recognition,5,arial,silence,word,Sure seen,1.0,seen,silence,1511,70,ok,11-04-2019 23:49
637,1.0,576.0,True,Letter designer,2,recognition,6,arial,hontever,non-word,Probably not seen,0.0,seen,hontever,7375,70,ok,11-04-2019 23:49
638,1.0,576.0,True,Letter designer,2,recognition,7,arial,money,word,Probably seen,0.0,not seen,moment,4146,70,ok,11-04-2019 23:49
639,1.0,576.0,True,Letter designer,2,recognition,8,arial,activities,word,Sure seen,1.0,seen,activities,1625,70,ok,11-04-2019 23:49
640,1.0,576.0,True,Letter designer,2,recognition,9,arial,plactarshed,non-word,Sure not seen,1.0,not seen,pillern,2594,70,ok,11-04-2019 23:49
641,1.0,576.0,True,Letter designer,2,recognition,10,arial,briends,non-word,Sure seen,1.0,seen,briends,1654,70,ok,11-04-2019 23:49
642,1.0,576.0,True,Letter designer,2,recognition,11,arial,holiday,word,Probably not seen,1.0,not seen,holding,2493,70,ok,11-04-2019 23:49
643,1.0,576.0,True,Letter designer,2,recognition,12,arial,project,word,Sure seen,0.0,not seen,progress,2121,70,ok,11-04-2019 23:49
644,1.0,576.0,True,Letter designer,2,recognition,13,arial,thelf,non-word,Sure seen,1.0,seen,thelf,1468,70,ok,11-04-2019 23:49
645,1.0,576.0,True,Letter designer,2,recognition,14,arial,western,word,Sure seen,1.0,seen,western,950,70,ok,11-04-2019 23:49
646,1.0,576.0,True,Letter designer,2,recognition,15,arial,fingers,word,Probably seen,0.0,not seen,finding,1518,70,ok,11-04-2019 23:49
647,1.0,576.0,True,Letter designer,2,recognition,16,arial,prought,non-word,Sure not seen,1.0,not seen,protercial,2847,70,ok,11-04-2019 23:49
648,1.0,648.0,True,Non-designer,1,lexical,1,arial,memory,word,Sure word,1.0,,,2117,80,very easy to read,11-04-2019 22:04
649,1.0,648.0,True,Non-designer,1,lexical,2,arial,varefully,non-word,Sure non-word,1.0,,,2116,80,very easy to read,11-04-2019 22:04
650,1.0,648.0,True,Non-designer,1,lexical,3,arial,across,word,Sure word,1.0,,,1773,80,very easy to read,11-04-2019 22:04
651,1.0,648.0,True,Non-designer,1,lexical,4,arial,crowd,word,Sure word,1.0,,,1700,80,very easy to read,11-04-2019 22:04
652,1.0,648.0,True,Non-designer,1,lexical,5,arial,veginnity,non-word,Sure non-word,1.0,,,2256,80,very easy to read,11-04-2019 22:04
653,1.0,648.0,True,Non-designer,1,lexical,6,arial,burropretic,non-word,Sure non-word,1.0,,,1845,80,very easy to read,11-04-2019 22:04
654,1.0,648.0,True,Non-designer,1,lexical,7,arial,satched,non-word,Sure non-word,1.0,,,2149,80,very easy to read,11-04-2019 22:04
655,1.0,648.0,True,Non-designer,1,lexical,8,arial,compared,word,Sure word,1.0,,,1800,80,very easy to read,11-04-2019 22:04
656,1.0,648.0,True,Non-designer,1,lexical,9,arial,commissful,non-word,Sure non-word,1.0,,,2300,80,very easy to read,11-04-2019 22:04
657,1.0,648.0,True,Non-designer,1,lexical,10,arial,fifteen,word,Sure word,1.0,,,1718,80,very easy to read,11-04-2019 22:04
658,1.0,648.0,True,Non-designer,1,lexical,11,arial,grown,word,Sure word,1.0,,,1598,80,very easy to read,11-04-2019 22:04
659,1.0,648.0,True,Non-designer,1,lexical,12,arial,nontrantion,non-word,Probably non-word,1.0,,,2392,80,very easy to read,11-04-2019 22:04
660,1.0,648.0,True,Non-designer,1,lexical,13,arial,talked,word,Sure word,1.0,,,1806,80,very easy to read,11-04-2019 22:04
661,1.0,648.0,True,Non-designer,1,lexical,14,arial,teaching,word,Sure word,1.0,,,1851,80,very easy to read,11-04-2019 22:04
662,1.0,648.0,True,Non-designer,1,lexical,15,arial,melatisted,non-word,Probably non-word,1.0,,,2742,80,very easy to read,11-04-2019 22:04
663,1.0,648.0,True,Non-designer,1,lexical,16,arial,umbrated,non-word,Probably non-word,1.0,,,2491,80,very easy to read,11-04-2019 22:04
664,1.0,648.0,True,Non-designer,1,lexical,17,arial,undividuals,non-word,Sure non-word,1.0,,,2293,80,very easy to read,11-04-2019 22:04
665,1.0,648.0,True,Non-designer,1,lexical,18,arial,gnaning,non-word,Sure non-word,1.0,,,2576,80,very easy to read,11-04-2019 22:04
666,1.0,648.0,True,Non-designer,1,lexical,19,arial,winter,word,Sure word,1.0,,,1548,80,very easy to read,11-04-2019 22:04
667,1.0,648.0,True,Non-designer,1,lexical,20,arial,century,word,Sure word,1.0,,,1583,80,very easy to read,11-04-2019 22:04
668,1.0,648.0,True,Non-designer,1,recognition,1,arial,crowd,word,Sure seen,1.0,seen,crowd,3329,80,very easy to read,11-04-2019 22:04
669,1.0,648.0,True,Non-designer,1,recognition,2,arial,gnaning,non-word,Sure seen,1.0,seen,gnaning,1930,80,very easy to read,11-04-2019 22:04
670,1.0,648.0,True,Non-designer,1,recognition,3,arial,grown,word,Sure seen,1.0,seen,grown,1587,80,very easy to read,11-04-2019 22:04
671,1.0,648.0,True,Non-designer,1,recognition,4,arial,uncessified,non-word,Sure not seen,1.0,not seen,umbrated,3325,80,very easy to read,11-04-2019 22:04
672,1.0,648.0,True,Non-designer,1,recognition,5,arial,winter,word,Sure seen,1.0,seen,winter,1605,80,very easy to read,11-04-2019 22:04
673,1.0,648.0,True,Non-designer,1,recognition,6,arial,memory,word,Sure seen,1.0,seen,memory,1205,80,very easy to read,11-04-2019 22:04
674,1.0,648.0,True,Non-designer,1,recognition,7,arial,certain,word,Sure not seen,1.0,not seen,century,4118,80,very easy to read,11-04-2019 22:04
675,1.0,648.0,True,Non-designer,1,recognition,8,arial,compaganth,non-word,Sure not seen,1.0,not seen,commissful,1692,80,very easy to read,11-04-2019 22:04
676,1.0,648.0,True,Non-designer,1,recognition,9,arial,veginnity,non-word,Sure seen,1.0,seen,veginnity,1891,80,very easy to read,11-04-2019 22:04
677,1.0,648.0,True,Non-designer,1,recognition,10,arial,melatisted,non-word,Sure seen,1.0,seen,melatisted,1954,80,very easy to read,11-04-2019 22:04
678,1.0,648.0,True,Non-designer,1,recognition,11,arial,fifty,word,Sure not seen,1.0,not seen,fifteen,3448,80,very easy to read,11-04-2019 22:04
679,1.0,648.0,True,Non-designer,1,recognition,12,arial,nontresnate,non-word,Sure not seen,1.0,not seen,nontrantion,2326,80,very easy to read,11-04-2019 22:04
680,1.0,648.0,True,Non-designer,1,recognition,13,arial,undividuals,non-word,Sure not seen,0.0,seen,undividuals,1732,80,very easy to read,11-04-2019 22:04
681,1.0,648.0,True,Non-designer,1,recognition,14,arial,sategontly,non-word,Sure not seen,1.0,not seen,satched,3119,80,very easy to read,11-04-2019 22:04
682,1.0,648.0,True,Non-designer,1,recognition,15,arial,tears,word,Sure not seen,1.0,not seen,teaching,2420,80,very easy to read,11-04-2019 22:04
683,1.0,648.0,True,Non-designer,1,recognition,16,arial,actions,word,Sure not seen,1.0,not seen,across,2048,80,very easy to read,11-04-2019 22:04
684,1.0,648.0,True,Non-designer,2,lexical,1,sansforgetica,immediative,non-word,Sure non-word,1.0,,,5221,73,difficult to read,11-04-2019 22:04
685,1.0,648.0,True,Non-designer,2,lexical,2,sansforgetica,sovies,non-word,Sure non-word,1.0,,,2471,73,difficult to read,11-04-2019 22:04
686,1.0,648.0,True,Non-designer,2,lexical,3,sansforgetica,build,word,Sure word,1.0,,,1818,73,difficult to read,11-04-2019 22:04
687,1.0,648.0,True,Non-designer,2,lexical,4,sansforgetica,highly,word,Sure word,1.0,,,1778,73,difficult to read,11-04-2019 22:04
688,1.0,648.0,True,Non-designer,2,lexical,5,sansforgetica,birds,word,Sure word,1.0,,,1940,73,difficult to read,11-04-2019 22:04
689,1.0,648.0,True,Non-designer,2,lexical,6,sansforgetica,thurning,non-word,Probably non-word,1.0,,,3991,73,difficult to read,11-04-2019 22:04
690,1.0,648.0,True,Non-designer,2,lexical,7,sansforgetica,movements,word,Sure word,1.0,,,1981,73,difficult to read,11-04-2019 22:04
691,1.0,648.0,True,Non-designer,2,lexical,8,sansforgetica,volong,non-word,Probably non-word,1.0,,,2551,73,difficult to read,11-04-2019 22:04
692,1.0,648.0,True,Non-designer,2,lexical,9,sansforgetica,extremely,word,Sure word,1.0,,,1932,73,difficult to read,11-04-2019 22:04
693,1.0,648.0,True,Non-designer,2,lexical,10,sansforgetica,limited,word,Sure word,1.0,,,2252,73,difficult to read,11-04-2019 22:04
694,1.0,648.0,True,Non-designer,2,lexical,11,sansforgetica,cross,word,Sure word,1.0,,,1609,73,difficult to read,11-04-2019 22:04
695,1.0,648.0,True,Non-designer,2,lexical,12,sansforgetica,growing,word,Sure word,1.0,,,1675,73,difficult to read,11-04-2019 22:04
696,1.0,648.0,True,Non-designer,2,lexical,13,sansforgetica,doubt,word,Sure word,1.0,,,1519,73,difficult to read,11-04-2019 22:04
697,1.0,648.0,True,Non-designer,2,lexical,14,sansforgetica,exisonent,non-word,Sure non-word,1.0,,,2271,73,difficult to read,11-04-2019 22:04
698,1.0,648.0,True,Non-designer,2,lexical,15,sansforgetica,explowing,non-word,Probably non-word,1.0,,,3098,73,difficult to read,11-04-2019 22:04
699,1.0,648.0,True,Non-designer,2,lexical,16,sansforgetica,awallized,non-word,Sure non-word,1.0,,,2528,73,difficult to read,11-04-2019 22:04
700,1.0,648.0,True,Non-designer,2,lexical,17,sansforgetica,horeations,non-word,Sure non-word,1.0,,,1994,73,difficult to read,11-04-2019 22:04
701,1.0,648.0,True,Non-designer,2,lexical,18,sansforgetica,chason,non-word,Probably non-word,1.0,,,2547,73,difficult to read,11-04-2019 22:04
702,1.0,648.0,True,Non-designer,2,lexical,19,sansforgetica,building,word,Sure word,1.0,,,1718,73,difficult to read,11-04-2019 22:04
703,1.0,648.0,True,Non-designer,2,lexical,20,sansforgetica,repreased,non-word,Probably non-word,1.0,,,2971,73,difficult to read,11-04-2019 22:04
704,1.0,648.0,True,Non-designer,2,recognition,1,sansforgetica,sovies,non-word,Sure seen,1.0,seen,sovies,3138,73,difficult to read,11-04-2019 22:04
705,1.0,648.0,True,Non-designer,2,recognition,2,sansforgetica,build,word,Sure seen,1.0,seen,build,1801,73,difficult to read,11-04-2019 22:04
706,1.0,648.0,True,Non-designer,2,recognition,3,sansforgetica,groups,word,Probably not seen,1.0,not seen,growing,4532,73,difficult to read,11-04-2019 22:04
707,1.0,648.0,True,Non-designer,2,recognition,4,sansforgetica,highly,word,Sure seen,1.0,seen,highly,1799,73,difficult to read,11-04-2019 22:04
708,1.0,648.0,True,Non-designer,2,recognition,5,sansforgetica,explowing,non-word,Sure seen,1.0,seen,explowing,2443,73,difficult to read,11-04-2019 22:04
709,1.0,648.0,True,Non-designer,2,recognition,6,sansforgetica,horeations,non-word,Sure seen,1.0,seen,horeations,1959,73,difficult to read,11-04-2019 22:04
710,1.0,648.0,True,Non-designer,2,recognition,7,sansforgetica,vulnership,non-word,Sure not seen,1.0,not seen,volong,2740,73,difficult to read,11-04-2019 22:04
711,1.0,648.0,True,Non-designer,2,recognition,8,sansforgetica,earlier,word,Probably seen,0.0,not seen,extremely,4041,73,difficult to read,11-04-2019 22:04
712,1.0,648.0,True,Non-designer,2,recognition,9,sansforgetica,dozen,word,Sure not seen,1.0,not seen,doubt,1893,73,difficult to read,11-04-2019 22:04
713,1.0,648.0,True,Non-designer,2,recognition,10,sansforgetica,aboud,non-word,Sure not seen,1.0,not seen,awallized,3525,73,difficult to read,11-04-2019 22:04
714,1.0,648.0,True,Non-designer,2,recognition,11,sansforgetica,limited,word,Sure seen,1.0,seen,limited,1476,73,difficult to read,11-04-2019 22:04
715,1.0,648.0,True,Non-designer,2,recognition,12,sansforgetica,moving,word,Probably not seen,1.0,not seen,movements,4523,73,difficult to read,11-04-2019 22:04
716,1.0,648.0,True,Non-designer,2,recognition,13,sansforgetica,expeantly,non-word,Sure not seen,1.0,not seen,exisonent,3171,73,difficult to read,11-04-2019 22:04
717,1.0,648.0,True,Non-designer,2,recognition,14,sansforgetica,birds,word,Sure seen,1.0,seen,birds,1415,73,difficult to read,11-04-2019 22:04
718,1.0,648.0,True,Non-designer,2,recognition,15,sansforgetica,tider,non-word,Sure not seen,1.0,not seen,thurning,2044,73,difficult to read,11-04-2019 22:04
719,1.0,648.0,True,Non-designer,2,recognition,16,sansforgetica,repreased,non-word,Sure seen,1.0,seen,repreased,2815,73,difficult to read,11-04-2019 22:04
720,1.0,720.0,True,Non-designer,1,lexical,1,arial,order,word,Sure word,1.0,,,4637,50,very easy to read,11-04-2019 21:36
721,1.0,720.0,True,Non-designer,1,lexical,2,arial,genscists,non-word,Sure non-word,1.0,,,6820,50,very easy to read,11-04-2019 21:36
722,1.0,720.0,True,Non-designer,1,lexical,3,arial,classes,word,Sure word,1.0,,,2115,50,very easy to read,11-04-2019 21:36
723,1.0,720.0,True,Non-designer,1,lexical,4,arial,plenty,word,Sure word,1.0,,,1424,50,very easy to read,11-04-2019 21:36
724,1.0,720.0,True,Non-designer,1,lexical,5,arial,chief,word,Sure word,1.0,,,1301,50,very easy to read,11-04-2019 21:36
725,1.0,720.0,True,Non-designer,1,lexical,6,arial,traditional,word,Sure word,1.0,,,1048,50,very easy to read,11-04-2019 21:36
726,1.0,720.0,True,Non-designer,1,lexical,7,arial,childred,non-word,Probably non-word,1.0,,,4243,50,very easy to read,11-04-2019 21:36
727,1.0,720.0,True,Non-designer,1,lexical,8,arial,parent,word,Sure word,1.0,,,1706,50,very easy to read,11-04-2019 21:36
728,1.0,720.0,True,Non-designer,1,lexical,9,arial,mixting,non-word,Probably word,0.0,,,3167,50,very easy to read,11-04-2019 21:36
729,1.0,720.0,True,Non-designer,1,lexical,10,arial,hovelently,non-word,Sure non-word,1.0,,,1899,50,very easy to read,11-04-2019 21:36
730,1.0,720.0,True,Non-designer,1,lexical,11,arial,manner,word,Sure word,1.0,,,4281,50,very easy to read,11-04-2019 21:36
731,1.0,720.0,True,Non-designer,1,lexical,12,arial,peoped,non-word,Sure non-word,1.0,,,2262,50,very easy to read,11-04-2019 21:36
